{
  "resourceType": "Bundle",
  "id": "bundle-eicr-document-zika",
  "meta": {
    "versionId": "28",
    "lastUpdated": "2019-11-02T02:30:14.000-04:00",
    "profile": [
      "http://hl7.org/fhir/us/ecr/StructureDefinition/eicr-document-bundle"
    ]
  },
  "identifier": {
    "system": "urn:ietf:rfc:3986",
    "value": "urn:uuid:0070d7b2-9893-4044-b255-73da1649c9fe"
  },
  "type": "document",
  "timestamp": "2018-01-02T22:13:23Z",
  "entry": [
    {
      "fullUrl": "Composition/composition-eicr-zika",
      "resource": {
        "resourceType": "Composition",
        "id": "composition-eicr-zika",
        "meta": {
          "versionId": "27",
          "lastUpdated": "2019-10-20T11:00:43.000-04:00",
          "profile": [
            "http://hl7.org/fhir/us/ecr/StructureDefinition/eicr-composition"
          ]
        },
        "text": {
          "status": "generated",
          "div": "<div xmlns=\"http://www.w3.org/1999/xhtml\" lang=\"en-US\">\n            <table xmlns:xsl=\"http://www.w3.org/1999/XSL/Transform\">\n              <tr>\n                <td style=\"font-weight: bold\">id</td>\n                <td>\n                  <div title=\"id\">composition-eicr-zika</div>\n                </td>\n              </tr>\n              <tr>\n                <td style=\"font-weight: bold\">meta</td>\n                <td>\n                  <table>\n                    <tr>\n                      <td style=\"font-weight: bold\">versionId</td>\n                      <td>\n                        <div title=\"versionId\">27</div>\n                      </td>\n                    </tr>\n                    <tr>\n                      <td style=\"font-weight: bold\">lastUpdated</td>\n                      <td>\n                        <div title=\"lastUpdated\">2019-10-20T11:00:43.000-04:00</div>\n                      </td>\n                    </tr>\n                    <tr>\n                      <td style=\"font-weight: bold\">profile</td>\n                      <td>\n                        <div title=\"profile\">http://hl7.org/fhir/us/ecr/StructureDefinition/eicr-composition</div>\n                      </td>\n                    </tr>\n                  </table>\n                </td>\n              </tr>\n              <tr>\n                <td style=\"font-weight: bold\">composition-clinicaldocument-versionNumber</td>\n                <td>\n                  <ul style=\"list-style:none; padding-left:0; margin:0 0;\">\n                    <li>\n                      <div title=\"valueString\">1</div>\n                    </li>\n                  </ul>\n                </td>\n              </tr>\n              <tr>\n                <td style=\"font-weight: bold\">identifier</td>\n                <td>\n                  <ul style=\"list-style:none; padding-left:0; margin:0 0;\">\n                    <li>\n                      <div title=\"value\">c03eab8c-11e8-4d0c-ad2a-b385395e27db</div>\n                    </li>\n                  </ul>\n                </td>\n              </tr>\n              <tr>\n                <td style=\"font-weight: bold\">status</td>\n                <td>\n                  <div title=\"status\">final</div>\n                </td>\n              </tr>\n              <tr>\n                <td style=\"font-weight: bold\">type</td>\n                <td>\n                  <ul style=\"list-style:none; padding-left:0; margin:0 0;\">\n                    <li>\n                      <ul style=\"list-style:none; padding-left:0; margin:0 0;\">\n                        <li>\n                          <div title=\"display\">Public Health Case Report</div>  (<div title=\"code\">55751-2</div> )\n          </li>\n                        <li>\n                          <div title=\"system\">\n                            <a href=\"http://loinc.org\">http://loinc.org</a>\n                          </div>\n                        </li>\n                      </ul>\n                    </li>\n                  </ul>\n                </td>\n              </tr>\n              <tr>\n                <td style=\"font-weight: bold\">subject</td>\n                <td>\n                  <ul style=\"list-style:none; padding-left:0; margin:0 0;\">\n                    <li/>\n                    <li>\n                      <a href=\"Patient-patient-ecr-eve-everywoman.html\">Eve Everywoman</a>\n                    </li>\n                  </ul>\n                </td>\n              </tr>\n              <tr>\n                <td style=\"font-weight: bold\">encounter</td>\n                <td>\n                  <ul style=\"list-style:none; padding-left:0; margin:0 0;\">\n                    <li/>\n                    <li>\n                      <a href=\"Encounter-encounter-eicr-eve-everywoman-outpatient.html\">Ambulatory Office Visit</a>\n                    </li>\n                  </ul>\n                </td>\n              </tr>\n              <tr>\n                <td style=\"font-weight: bold\">date</td>\n                <td>\n                  <div title=\"date\">2018-01-02T22:13:23Z</div>\n                </td>\n              </tr>\n              <tr>\n                <td style=\"font-weight: bold\">author</td>\n                <td>\n                  <ul style=\"list-style:none; padding-left:0; margin:0 0;\">\n                    <li/>\n                    <li>\n                      <a href=\"PractitionerRole-practitionerrole-henry-seven.html\">Henry Seven, MD</a>\n                    </li>\n                  </ul>\n                </td>\n              </tr>\n              <tr>\n                <td style=\"font-weight: bold\">title</td>\n                <td>\n                  <div title=\"title\">Initial Public Health Case Report - Zika Example</div>\n                </td>\n              </tr>\n              <tr>\n                <td style=\"font-weight: bold\">section</td>\n                <td>\n                  <table>\n                    <tr>\n                      <td style=\"font-weight: bold\">title</td>\n                      <td>\n                        <div title=\"title\">History of Present Illness Section</div>\n                      </td>\n                    </tr>\n                    <tr>\n                      <td style=\"font-weight: bold\">code</td>\n                      <td>\n                        <ul style=\"list-style:none; padding-left:0; margin:0 0;\">\n                          <li>\n                            <ul style=\"list-style:none; padding-left:0; margin:0 0;\">\n                              <li>\n                                <div title=\"display\">History of Present illness Narrative</div>  (<div title=\"code\">10164-2</div> )\n          </li>\n                              <li>\n                                <div title=\"system\">\n                                  <a href=\"http://loinc.org\">http://loinc.org</a>\n                                </div>\n                              </li>\n                            </ul>\n                          </li>\n                        </ul>\n                      </td>\n                    </tr>\n                    <tr>\n                      <td colspan=\"2\" lang=\"en-US\" class=\"text-no-entries\">\n                Persistent Cough REPORTED starting on 2018/03/05\n                \n                            \n                            <br/> Whooping Respiration not reported\n                \n                            \n                            <br/> Paroxysms Of Coughing REPORTED starting on 2018/03/06\n                \n                            \n                            <br/> Post-tussive vomiting not reported\n         \n                        \n                        </td>\n                    </tr>\n                  </table>\n                </td>\n              </tr>\n              <tr>\n                <td style=\"font-weight: bold\">section</td>\n                <td>\n                  <table>\n                    <tr>\n                      <td style=\"font-weight: bold\">title</td>\n                      <td>\n                        <div title=\"title\">Reason for Visit Section</div>\n                      </td>\n                    </tr>\n                    <tr>\n                      <td style=\"font-weight: bold\">code</td>\n                      <td>\n                        <ul style=\"list-style:none; padding-left:0; margin:0 0;\">\n                          <li>\n                            <ul style=\"list-style:none; padding-left:0; margin:0 0;\">\n                              <li>\n                                <div title=\"display\">Reason for visit Narrative</div>  (<div title=\"code\">29299-5</div> )\n          </li>\n                              <li>\n                                <div title=\"system\">\n                                  <a href=\"http://loinc.org\">http://loinc.org</a>\n                                </div>\n                              </li>\n                            </ul>\n                          </li>\n                        </ul>\n                      </td>\n                    </tr>\n                    <tr>\n                      <td colspan=\"2\" lang=\"en-US\" class=\"text-no-entries\">\n                        <p>Bad cough</p>\n                      </td>\n                    </tr>\n                  </table>\n                </td>\n              </tr>\n              <tr>\n                <td style=\"font-weight: bold\">section</td>\n                <td>\n                  <table>\n                    <tr>\n                      <td style=\"font-weight: bold\">title</td>\n                      <td>\n                        <div title=\"title\">Problems Section</div>\n                      </td>\n                    </tr>\n                    <tr>\n                      <td style=\"font-weight: bold\">code</td>\n                      <td>\n                        <ul style=\"list-style:none; padding-left:0; margin:0 0;\">\n                          <li>\n                            <ul style=\"list-style:none; padding-left:0; margin:0 0;\">\n                              <li>\n                                <div title=\"display\">Problem list - Reported</div>  (<div title=\"code\">11450-4</div> )\n          </li>\n                              <li>\n                                <div title=\"system\">\n                                  <a href=\"http://loinc.org\">http://loinc.org</a>\n                                </div>\n                              </li>\n                            </ul>\n                          </li>\n                        </ul>\n                      </td>\n                    </tr>\n                    <tr>\n                      <td style=\"font-weight: bold\">entry</td>\n                      <td>\n                        <a href=\"Condition-condition-eicr-eve-everywoman-common-cold.html\">Common cold (disorder)</a>\n                        <table>\n                          <tr>\n                            <td style=\"font-weight: bold\">id</td>\n                            <td>\n                              <div title=\"id\">condition-eicr-eve-everywoman-common-cold</div>\n                            </td>\n                          </tr>\n                          <tr>\n                            <td style=\"font-weight: bold\">meta</td>\n                            <td>\n                              <table>\n                                <tr>\n                                  <td style=\"font-weight: bold\">versionId</td>\n                                  <td>\n                                    <div title=\"versionId\">15</div>\n                                  </td>\n                                </tr>\n                                <tr>\n                                  <td style=\"font-weight: bold\">lastUpdated</td>\n                                  <td>\n                                    <div title=\"lastUpdated\">2019-10-10T21:21:49.000-04:00</div>\n                                  </td>\n                                </tr>\n                                <tr>\n                                  <td style=\"font-weight: bold\">profile</td>\n                                  <td>\n                                    <div title=\"profile\">http://hl7.org/fhir/us/ecr/StructureDefinition/eicr-condition</div>\n                                  </td>\n                                </tr>\n                              </table>\n                            </td>\n                          </tr>\n                          <tr>\n                            <td style=\"font-weight: bold\">category</td>\n                            <td>\n                              <ul style=\"list-style:none; padding-left:0; margin:0 0;\">\n                                <li>\n                                  <ul style=\"list-style:none; padding-left:0; margin:0 0;\">\n                                    <li>\n                                      <div title=\"display\">Problem List Item</div>  (<div title=\"code\">problem-list-item</div> )\n          </li>\n                                    <li>\n                                      <div title=\"system\">\n                                        <a href=\"http://terminology.hl7.org/CodeSystem/condition-category\">http://terminology.hl7.org/CodeSystem/condition-category</a>\n                                      </div>\n                                    </li>\n                                  </ul>\n                                </li>\n                              </ul>\n                            </td>\n                          </tr>\n                          <tr>\n                            <td style=\"font-weight: bold\">code</td>\n                            <td>\n                              <ul style=\"list-style:none; padding-left:0; margin:0 0;\">\n                                <li>\n                                  <ul style=\"list-style:none; padding-left:0; margin:0 0;\">\n                                    <li>\n                                      <div title=\"display\">Common cold (disorder)</div>  (<div title=\"code\">82272006</div> )\n          </li>\n                                    <li>\n                                      <div title=\"system\">\n                                        <a href=\"http://snomed.info/sct\">http://snomed.info/sct</a>\n                                      </div>\n                                    </li>\n                                  </ul>\n                                </li>\n                              </ul>\n                            </td>\n                          </tr>\n                          <tr>\n                            <td style=\"font-weight: bold\">subject</td>\n                            <td>\n                              <ul style=\"list-style:none; padding-left:0; margin:0 0;\">\n                                <li/>\n                                <li>\n                                  <a href=\"Patient-patient-ecr-eve-everywoman.html\">Eve Everywoman</a>\n                                </li>\n                              </ul>\n                            </td>\n                          </tr>\n                          <tr>\n                            <td style=\"font-weight: bold\">onsetDateTime</td>\n                            <td>\n                              <div title=\"onsetDateTime\">2017-09-23</div>\n                            </td>\n                          </tr>\n                          <tr>\n                            <td style=\"font-weight: bold\">asserter</td>\n                            <td>\n                              <ul style=\"list-style:none; padding-left:0; margin:0 0;\">\n                                <li/>\n                                <li>\n                                  <a href=\"Practitioner-practitioner-us-core-henry-seven.html\">Henry Seven, MD</a>\n                                </li>\n                              </ul>\n                            </td>\n                          </tr>\n                        </table>\n                      </td>\n                    </tr>\n                  </table>\n                </td>\n              </tr>\n              <tr>\n                <td style=\"font-weight: bold\">section</td>\n                <td>\n                  <table>\n                    <tr>\n                      <td style=\"font-weight: bold\">title</td>\n                      <td>\n                        <div title=\"title\">Social History Section</div>\n                      </td>\n                    </tr>\n                    <tr>\n                      <td style=\"font-weight: bold\">code</td>\n                      <td>\n                        <ul style=\"list-style:none; padding-left:0; margin:0 0;\">\n                          <li>\n                            <ul style=\"list-style:none; padding-left:0; margin:0 0;\">\n                              <li>\n                                <div title=\"display\">Social history Narrative</div>  (<div title=\"code\">29762-2</div> )\n          </li>\n                              <li>\n                                <div title=\"system\">\n                                  <a href=\"http://loinc.org\">http://loinc.org</a>\n                                </div>\n                              </li>\n                            </ul>\n                          </li>\n                        </ul>\n                      </td>\n                    </tr>\n                    <tr>\n                      <td style=\"font-weight: bold\">entry</td>\n                      <td>\n                        <a href=\"Observation-observation-travel-history-eve-everywoman-201801.html\">eICR Travel History: Eve Everywoman 2018-01</a>\n                        <table>\n                          <tr>\n                            <td style=\"font-weight: bold\">id</td>\n                            <td>\n                              <div title=\"id\">observation-travel-history-eve-everywoman-201801</div>\n                            </td>\n                          </tr>\n                          <tr>\n                            <td style=\"font-weight: bold\">meta</td>\n                            <td>\n                              <table>\n                                <tr>\n                                  <td style=\"font-weight: bold\">versionId</td>\n                                  <td>\n                                    <div title=\"versionId\">11</div>\n                                  </td>\n                                </tr>\n                                <tr>\n                                  <td style=\"font-weight: bold\">lastUpdated</td>\n                                  <td>\n                                    <div title=\"lastUpdated\">2019-10-05T03:15:42.000-04:00</div>\n                                  </td>\n                                </tr>\n                                <tr>\n                                  <td style=\"font-weight: bold\">profile</td>\n                                  <td>\n                                    <div title=\"profile\">http://hl7.org/fhir/us/ecr/StructureDefinition/travel-history-observation</div>\n                                  </td>\n                                </tr>\n                              </table>\n                            </td>\n                          </tr>\n                          <tr>\n                            <td style=\"font-weight: bold\">status</td>\n                            <td>\n                              <div title=\"status\">final</div>\n                            </td>\n                          </tr>\n                          <tr>\n                            <td style=\"font-weight: bold\">code</td>\n                            <td>\n                              <ul style=\"list-style:none; padding-left:0; margin:0 0;\">\n                                <li>\n                                  <div title=\"text\">Travel History</div>\n                                </li>\n                                <li>\n                                  <ul style=\"list-style:none; padding-left:0; margin:0 0;\">\n                                    <li>\n                                      <div title=\"display\">Travel</div>  (<div title=\"code\">420008001</div> )\n          </li>\n                                    <li>\n                                      <div title=\"system\">\n                                        <a href=\"http://snomed.info/sct\">http://snomed.info/sct</a>\n                                      </div>\n                                    </li>\n                                  </ul>\n                                </li>\n                              </ul>\n                            </td>\n                          </tr>\n                          <tr>\n                            <td style=\"font-weight: bold\">subject</td>\n                            <td>\n                              <ul style=\"list-style:none; padding-left:0; margin:0 0;\">\n                                <li/>\n                                <li>\n                                  <a href=\"Patient-patient-ecr-eve-everywoman.html\">Eve Everywoman</a>\n                                </li>\n                              </ul>\n                            </td>\n                          </tr>\n                          <tr>\n                            <td style=\"font-weight: bold\">effectivePeriod</td>\n                            <td>\n                              <table>\n                                <tr>\n                                  <td style=\"font-weight: bold\">start</td>\n                                  <td>\n                                    <div title=\"start\">2018-01-15</div>\n                                  </td>\n                                </tr>\n                                <tr>\n                                  <td style=\"font-weight: bold\">end</td>\n                                  <td>\n                                    <div title=\"end\">2018-01-30</div>\n                                  </td>\n                                </tr>\n                              </table>\n                            </td>\n                          </tr>\n                          <tr>\n                            <td style=\"font-weight: bold\">component</td>\n                            <td>\n                              <table>\n                                <tr>\n                                  <td style=\"font-weight: bold\">code</td>\n                                  <td>\n                                    <ul style=\"list-style:none; padding-left:0; margin:0 0;\">\n                                      <li>\n                                        <ul style=\"list-style:none; padding-left:0; margin:0 0;\">\n                                          <li>\n                                            <div title=\"display\">Location</div>  (<div title=\"code\">LOC</div> )\n          </li>\n                                          <li>\n                                            <div title=\"system\">\n                                              <a href=\"http://terminology.hl7.org/CodeSystem/v3-ParticipationType\">http://terminology.hl7.org/CodeSystem/v3-ParticipationType</a>\n                                            </div>\n                                          </li>\n                                        </ul>\n                                      </li>\n                                    </ul>\n                                  </td>\n                                </tr>\n                                <tr>\n                                  <td style=\"font-weight: bold\">valueCodeableConcept</td>\n                                  <td>\n                                    <ul style=\"list-style:none; padding-left:0; margin:0 0;\">\n                                      <li>\n                                        <ul style=\"list-style:none; padding-left:0; margin:0 0;\">\n                                          <li>\n                                            <div title=\"display\">Fiji</div>  (<div title=\"code\">FJI</div> )\n          </li>\n                                          <li>\n                                            <div title=\"system\">urn:iso:std:iso:3166</div>\n                                          </li>\n                                        </ul>\n                                      </li>\n                                    </ul>\n                                  </td>\n                                </tr>\n                              </table>\n                            </td>\n                          </tr>\n                          <tr>\n                            <td style=\"font-weight: bold\">component</td>\n                            <td>\n                              <table>\n                                <tr>\n                                  <td style=\"font-weight: bold\">code</td>\n                                  <td>\n                                    <ul style=\"list-style:none; padding-left:0; margin:0 0;\">\n                                      <li>\n                                        <ul style=\"list-style:none; padding-left:0; margin:0 0;\">\n                                          <li>\n                                            <div title=\"display\">Location</div>  (<div title=\"code\">LOC</div> )\n          </li>\n                                          <li>\n                                            <div title=\"system\">\n                                              <a href=\"http://terminology.hl7.org/CodeSystem/v3-ParticipationType\">http://terminology.hl7.org/CodeSystem/v3-ParticipationType</a>\n                                            </div>\n                                          </li>\n                                        </ul>\n                                      </li>\n                                    </ul>\n                                  </td>\n                                </tr>\n                                <tr>\n                                  <td style=\"font-weight: bold\">valueCodeableConcept</td>\n                                  <td>\n                                    <ul style=\"list-style:none; padding-left:0; margin:0 0;\">\n                                      <li>\n                                        <ul style=\"list-style:none; padding-left:0; margin:0 0;\">\n                                          <li>\n                                            <div title=\"display\">Vanuatu</div>  (<div title=\"code\">VUT</div> )\n          </li>\n                                          <li>\n                                            <div title=\"system\"><a href=\"https://phinvads.cdc.gov/vads/ViewCodeSystem.action?id=1.0.3166.1\">https://phinvads.cdc.gov/vads/ViewCodeSystem.action?id=1.0.3166.1</a></div>\n                                          </li>\n                                        </ul>\n                                      </li>\n                                    </ul>\n                                  </td>\n                                </tr>\n                              </table>\n                            </td>\n                          </tr>\n                        </table>\n                      </td>\n                    </tr>\n                    <tr>\n                      <td style=\"font-weight: bold\">entry</td>\n                      <td>\n                        <a href=\"Observation-observation-odh-usual-work-eve-everywoman.html\">ODH Usual Work Example</a>\n                        <table>\n                          <tr>\n                            <td style=\"font-weight: bold\">id</td>\n                            <td>\n                              <div title=\"id\">observation-odh-usual-work-eve-everywoman</div>\n                            </td>\n                          </tr>\n                          <tr>\n                            <td style=\"font-weight: bold\">meta</td>\n                            <td>\n                              <table>\n                                <tr>\n                                  <td style=\"font-weight: bold\">versionId</td>\n                                  <td>\n                                    <div title=\"versionId\">2</div>\n                                  </td>\n                                </tr>\n                                <tr>\n                                  <td style=\"font-weight: bold\">lastUpdated</td>\n                                  <td>\n                                    <div title=\"lastUpdated\">2019-10-20T10:53:14.000-04:00</div>\n                                  </td>\n                                </tr>\n                                <tr>\n                                  <td style=\"font-weight: bold\">profile</td>\n                                  <td>\n                                    <div title=\"profile\">http://hl7.org/fhir/us/odh/StructureDefinition/odh-UsualWork</div>\n                                  </td>\n                                </tr>\n                              </table>\n                            </td>\n                          </tr>\n                          <tr>\n                            <td style=\"font-weight: bold\">status</td>\n                            <td>\n                              <div title=\"status\">final</div>\n                            </td>\n                          </tr>\n                          <tr>\n                            <td style=\"font-weight: bold\">code</td>\n                            <td>\n                              <ul style=\"list-style:none; padding-left:0; margin:0 0;\">\n                                <li>\n                                  <ul style=\"list-style:none; padding-left:0; margin:0 0;\">\n                                    <li>\n                                      <div title=\"display\">History of Usual occupation</div>  (<div title=\"code\">21843-8</div> )\n          </li>\n                                    <li>\n                                      <div title=\"system\">\n                                        <a href=\"http://loinc.org\">http://loinc.org</a>\n                                      </div>\n                                    </li>\n                                  </ul>\n                                </li>\n                              </ul>\n                            </td>\n                          </tr>\n                          <tr>\n                            <td style=\"font-weight: bold\">subject</td>\n                            <td>\n                              <ul style=\"list-style:none; padding-left:0; margin:0 0;\">\n                                <li/>\n                                <li>\n                                  <a href=\"Patient-patient-ecr-eve-everywoman.html\">Eve Everywoman</a>\n                                </li>\n                              </ul>\n                            </td>\n                          </tr>\n                          <tr>\n                            <td style=\"font-weight: bold\">effectivePeriod</td>\n                            <td>\n                              <table>\n                                <tr>\n                                  <td style=\"font-weight: bold\">start</td>\n                                  <td>\n                                    <div title=\"start\">2015-01-01</div>\n                                  </td>\n                                </tr>\n                                <tr>\n                                  <td style=\"font-weight: bold\">end</td>\n                                  <td>\n                                    <div title=\"end\">2018-03-07</div>\n                                  </td>\n                                </tr>\n                              </table>\n                            </td>\n                          </tr>\n                          <tr>\n                            <td style=\"font-weight: bold\">valueCodeableConcept</td>\n                            <td>\n                              <ul style=\"list-style:none; padding-left:0; margin:0 0;\">\n                                <li>\n                                  <ul style=\"list-style:none; padding-left:0; margin:0 0;\">\n                                    <li>\n                                      <div title=\"display\">Human Resources Managers</div>  (<div title=\"code\">0136</div> )\n          </li>\n                                    <li>\n                                      <div title=\"system\"><a href=\"https://phinvads.cdc.gov/vads/ViewCodeSystem.action?id=2.16.840.1.114222.4.5.314\">https://phinvads.cdc.gov/vads/ViewCodeSystem.action?id=2.16.840.1.114222.4.5.314</a></div>\n                                    </li>\n                                  </ul>\n                                </li>\n                              </ul>\n                            </td>\n                          </tr>\n                          <tr>\n                            <td style=\"font-weight: bold\">component</td>\n                            <td>\n                              <table>\n                                <tr>\n                                  <td style=\"font-weight: bold\">code</td>\n                                  <td>\n                                    <ul style=\"list-style:none; padding-left:0; margin:0 0;\">\n                                      <li>\n                                        <ul style=\"list-style:none; padding-left:0; margin:0 0;\">\n                                          <li>\n                                            <div title=\"display\">History of Usual industry</div>  (<div title=\"code\">21844-6</div> )\n          </li>\n                                          <li>\n                                            <div title=\"system\">\n                                              <a href=\"http://loinc.org\">http://loinc.org</a>\n                                            </div>\n                                          </li>\n                                        </ul>\n                                      </li>\n                                    </ul>\n                                  </td>\n                                </tr>\n                                <tr>\n                                  <td style=\"font-weight: bold\">valueCodeableConcept</td>\n                                  <td>\n                                    <ul style=\"list-style:none; padding-left:0; margin:0 0;\">\n                                      <li>\n                                        <ul style=\"list-style:none; padding-left:0; margin:0 0;\">\n                                          <li>\n                                            <div title=\"display\">Hospitals</div>  (<div title=\"code\">8190</div> )\n          </li>\n                                          <li>\n                                            <div title=\"system\"><a href=\"https://phinvads.cdc.gov/vads/ViewCodeSystem.action?id=2.16.840.1.114222.4.5.315\">https://phinvads.cdc.gov/vads/ViewCodeSystem.action?id=2.16.840.1.114222.4.5.315</a></div>\n                                          </li>\n                                        </ul>\n                                      </li>\n                                    </ul>\n                                  </td>\n                                </tr>\n                              </table>\n                            </td>\n                          </tr>\n                        </table>\n                      </td>\n                    </tr>\n                  </table>\n                </td>\n              </tr>\n              <tr>\n                <td style=\"font-weight: bold\">section</td>\n                <td>\n                  <table>\n                    <tr>\n                      <td style=\"font-weight: bold\">title</td>\n                      <td>\n                        <div title=\"title\">Medications Administered Section</div>\n                      </td>\n                    </tr>\n                    <tr>\n                      <td style=\"font-weight: bold\">code</td>\n                      <td>\n                        <ul style=\"list-style:none; padding-left:0; margin:0 0;\">\n                          <li>\n                            <ul style=\"list-style:none; padding-left:0; margin:0 0;\">\n                              <li>\n                                <div title=\"display\">Medication administered Narrative</div>  (<div title=\"code\">29549-3</div> )\n          </li>\n                              <li>\n                                <div title=\"system\">\n                                  <a href=\"http://loinc.org\">http://loinc.org</a>\n                                </div>\n                              </li>\n                            </ul>\n                          </li>\n                        </ul>\n                      </td>\n                    </tr>\n                    <tr>\n                      <td style=\"font-weight: bold\">entry</td>\n                      <td>\n                        <a href=\"MedicationAdministration-medicationadministration-eve-everywoman-azithromycin.html\">Azithromycin 500 MG Oral Tablet</a>\n                        <table>\n                          <tr>\n                            <td style=\"font-weight: bold\">id</td>\n                            <td>\n                              <div title=\"id\">medicationadministration-eve-everywoman-azithromycin</div>\n                            </td>\n                          </tr>\n                          <tr>\n                            <td style=\"font-weight: bold\">meta</td>\n                            <td>\n                              <table>\n                                <tr>\n                                  <td style=\"font-weight: bold\">versionId</td>\n                                  <td>\n                                    <div title=\"versionId\">10</div>\n                                  </td>\n                                </tr>\n                                <tr>\n                                  <td style=\"font-weight: bold\">lastUpdated</td>\n                                  <td>\n                                    <div title=\"lastUpdated\">2019-10-05T03:11:22.000-04:00</div>\n                                  </td>\n                                </tr>\n                              </table>\n                            </td>\n                          </tr>\n                          <tr>\n                            <td style=\"font-weight: bold\">status</td>\n                            <td>\n                              <div title=\"status\">completed</div>\n                            </td>\n                          </tr>\n                          <tr>\n                            <td style=\"font-weight: bold\">medicationCodeableConcept</td>\n                            <td>\n                              <ul style=\"list-style:none; padding-left:0; margin:0 0;\">\n                                <li>\n                                  <div title=\"text\">Azithromycin 500 MG Oral Tablet</div>\n                                </li>\n                                <li>\n                                  <ul style=\"list-style:none; padding-left:0; margin:0 0;\">\n                                    <li>\n                                      <div title=\"display\">Azithromycin 500 MG Oral Tablet</div>  (<div title=\"code\">248656</div> )\n          </li>\n                                    <li>\n                                      <div title=\"system\">\n                                        <a href=\"http://www.nlm.nih.gov/research/umls/rxnorm\">http://www.nlm.nih.gov/research/umls/rxnorm</a>\n                                      </div>\n                                    </li>\n                                  </ul>\n                                </li>\n                              </ul>\n                            </td>\n                          </tr>\n                          <tr>\n                            <td style=\"font-weight: bold\">subject</td>\n                            <td>\n                              <ul style=\"list-style:none; padding-left:0; margin:0 0;\">\n                                <li/>\n                                <li>\n                                  <a href=\"Patient-patient-ecr-eve-everywoman.html\">Eve Everywoman</a>\n                                </li>\n                              </ul>\n                            </td>\n                          </tr>\n                          <tr>\n                            <td style=\"font-weight: bold\">effectivePeriod</td>\n                            <td>\n                              <table>\n                                <tr>\n                                  <td style=\"font-weight: bold\">start</td>\n                                  <td>\n                                    <div title=\"start\">2018-03-07</div>\n                                  </td>\n                                </tr>\n                                <tr>\n                                  <td style=\"font-weight: bold\">end</td>\n                                  <td>\n                                    <div title=\"end\">2018-03-07</div>\n                                  </td>\n                                </tr>\n                              </table>\n                            </td>\n                          </tr>\n                          <tr>\n                            <td style=\"font-weight: bold\">dosage</td>\n                            <td>\n                              <table>\n                                <tr>\n                                  <td style=\"font-weight: bold\">route</td>\n                                  <td>\n                                    <ul style=\"list-style:none; padding-left:0; margin:0 0;\">\n                                      <li>\n                                        <ul style=\"list-style:none; padding-left:0; margin:0 0;\">\n                                          <li>\n                                            <div title=\"display\">Oral Route</div>  (<div title=\"code\">26643006</div> )\n          </li>\n                                          <li>\n                                            <div title=\"system\">\n                                              <a href=\"http://snomed.info/sct\">http://snomed.info/sct</a>\n                                            </div>\n                                          </li>\n                                        </ul>\n                                      </li>\n                                    </ul>\n                                  </td>\n                                </tr>\n                                <tr>\n                                  <td style=\"font-weight: bold\">method</td>\n                                  <td>\n                                    <ul style=\"list-style:none; padding-left:0; margin:0 0;\">\n                                      <li>\n                                        <ul style=\"list-style:none; padding-left:0; margin:0 0;\">\n                                          <li>\n                                            <div title=\"display\">Swallow - dosing instruction imperative (qualifier value)</div>  (<div title=\"code\">421521009</div> )\n          </li>\n                                          <li>\n                                            <div title=\"system\">\n                                              <a href=\"http://snomed.info/sct\">http://snomed.info/sct</a>\n                                            </div>\n                                          </li>\n                                        </ul>\n                                      </li>\n                                    </ul>\n                                  </td>\n                                </tr>\n                                <tr>\n                                  <td style=\"font-weight: bold\">dose</td>\n                                  <td>\n                                    <table>\n                                      <tr>\n                                        <td style=\"font-weight: bold\">value</td>\n                                        <td>\n                                          <div title=\"value\">2</div>\n                                        </td>\n                                      </tr>\n                                      <tr>\n                                        <td style=\"font-weight: bold\">unit</td>\n                                        <td>\n                                          <div title=\"unit\">TAB</div>\n                                        </td>\n                                      </tr>\n                                      <tr>\n                                        <td style=\"font-weight: bold\">system</td>\n                                        <td>\n                                          <div title=\"system\">\n                                            <a href=\"http://terminology.hl7.org/CodeSystem/v3-orderableDrugForm\">http://terminology.hl7.org/CodeSystem/v3-orderableDrugForm</a>\n                                          </div>\n                                        </td>\n                                      </tr>\n                                      <tr>\n                                        <td style=\"font-weight: bold\">code</td>\n                                        <td>\n                                          <div title=\"code\">TAB</div>\n                                        </td>\n                                      </tr>\n                                    </table>\n                                  </td>\n                                </tr>\n                              </table>\n                            </td>\n                          </tr>\n                        </table>\n                      </td>\n                    </tr>\n                  </table>\n                </td>\n              </tr>\n              <tr>\n                <td style=\"font-weight: bold\">section</td>\n                <td>\n                  <table>\n                    <tr>\n                      <td style=\"font-weight: bold\">title</td>\n                      <td>\n                        <div title=\"title\">Results Section</div>\n                      </td>\n                    </tr>\n                    <tr>\n                      <td style=\"font-weight: bold\">code</td>\n                      <td>\n                        <ul style=\"list-style:none; padding-left:0; margin:0 0;\">\n                          <li>\n                            <ul style=\"list-style:none; padding-left:0; margin:0 0;\">\n                              <li>\n                                <div title=\"display\">Relevant Dx tests/lab data</div>  (<div title=\"code\">30954-2</div> )\n          </li>\n                              <li>\n                                <div title=\"system\">\n                                  <a href=\"http://loinc.org\">http://loinc.org</a>\n                                </div>\n                              </li>\n                            </ul>\n                          </li>\n                        </ul>\n                      </td>\n                    </tr>\n                    <tr>\n                      <td style=\"font-weight: bold\">entry</td>\n                      <td>\n                        <a href=\"Observation-observation-us-core-results-eve-everywoman-lymphocytes.html\">Lymphocytes [#/​volume] in Blood by Automated count - Interpretation: High</a>\n                        <table>\n                          <tr>\n                            <td style=\"font-weight: bold\">id</td>\n                            <td>\n                              <div title=\"id\">observation-us-core-results-eve-everywoman-lymphocytes</div>\n                            </td>\n                          </tr>\n                          <tr>\n                            <td style=\"font-weight: bold\">meta</td>\n                            <td>\n                              <table>\n                                <tr>\n                                  <td style=\"font-weight: bold\">versionId</td>\n                                  <td>\n                                    <div title=\"versionId\">10</div>\n                                  </td>\n                                </tr>\n                                <tr>\n                                  <td style=\"font-weight: bold\">lastUpdated</td>\n                                  <td>\n                                    <div title=\"lastUpdated\">2019-10-05T02:50:13.000-04:00</div>\n                                  </td>\n                                </tr>\n                                <tr>\n                                  <td style=\"font-weight: bold\">profile</td>\n                                  <td>\n                                    <div title=\"profile\">http://hl7.org/fhir/us/core/StructureDefinition/us-core-observation-lab</div>\n                                  </td>\n                                </tr>\n                              </table>\n                            </td>\n                          </tr>\n                          <tr>\n                            <td style=\"font-weight: bold\">status</td>\n                            <td>\n                              <div title=\"status\">final</div>\n                            </td>\n                          </tr>\n                          <tr>\n                            <td style=\"font-weight: bold\">category</td>\n                            <td>\n                              <ul style=\"list-style:none; padding-left:0; margin:0 0;\">\n                                <li>\n                                  <div title=\"text\">Laboratory</div>\n                                </li>\n                                <li>\n                                  <ul style=\"list-style:none; padding-left:0; margin:0 0;\">\n                                    <li>\n                                      <div title=\"display\">Laboratory</div>  (<div title=\"code\">laboratory</div> )\n          </li>\n                                    <li>\n                                      <div title=\"system\">\n                                        <a href=\"http://terminology.hl7.org/CodeSystem/observation-category\">http://terminology.hl7.org/CodeSystem/observation-category</a>\n                                      </div>\n                                    </li>\n                                  </ul>\n                                </li>\n                              </ul>\n                            </td>\n                          </tr>\n                          <tr>\n                            <td style=\"font-weight: bold\">code</td>\n                            <td>\n                              <ul style=\"list-style:none; padding-left:0; margin:0 0;\">\n                                <li>\n                                  <ul style=\"list-style:none; padding-left:0; margin:0 0;\">\n                                    <li>\n                                      <div title=\"display\">Lymphocytes [#/volume] in Blood by Automated count</div>  (<div title=\"code\">731-0</div> )\n          </li>\n                                    <li>\n                                      <div title=\"system\">\n                                        <a href=\"http://loinc.org\">http://loinc.org</a>\n                                      </div>\n                                    </li>\n                                  </ul>\n                                </li>\n                              </ul>\n                            </td>\n                          </tr>\n                          <tr>\n                            <td style=\"font-weight: bold\">subject</td>\n                            <td>\n                              <ul style=\"list-style:none; padding-left:0; margin:0 0;\">\n                                <li/>\n                                <li>\n                                  <a href=\"Patient-patient-ecr-eve-everywoman.html\">Eve Everywoman</a>\n                                </li>\n                              </ul>\n                            </td>\n                          </tr>\n                          <tr>\n                            <td style=\"font-weight: bold\">effectiveDateTime</td>\n                            <td>\n                              <div title=\"effectiveDateTime\">2018-03-07</div>\n                            </td>\n                          </tr>\n                          <tr>\n                            <td style=\"font-weight: bold\">valueQuantity</td>\n                            <td>\n                              <ul style=\"list-style:none; padding-left:0; margin:0 0;\">\n                                <li>\n                                  <div title=\"value\">5.2</div>\n                                </li>\n                                <li>\n                                  <div title=\"system\">\n                                    <a href=\"http://unitsofmeasure.org\">http://unitsofmeasure.org</a>\n                                  </div>\n                                </li>\n                                <li>\n                                  <div title=\"code\">10*3/uL</div>\n                                </li>\n                              </ul>\n                            </td>\n                          </tr>\n                          <tr>\n                            <td style=\"font-weight: bold\">interpretation</td>\n                            <td>\n                              <ul style=\"list-style:none; padding-left:0; margin:0 0;\">\n                                <li>\n                                  <ul style=\"list-style:none; padding-left:0; margin:0 0;\">\n                                    <li>\n                                      <div title=\"display\">High</div>  (<div title=\"code\">H</div> )\n          </li>\n                                    <li>\n                                      <div title=\"system\">\n                                        <a href=\"http://terminology.hl7.org/CodeSystem/v2-0078\">http://terminology.hl7.org/CodeSystem/v2-0078</a>\n                                      </div>\n                                    </li>\n                                  </ul>\n                                </li>\n                              </ul>\n                            </td>\n                          </tr>\n                          <tr>\n                            <td style=\"font-weight: bold\">referenceRange</td>\n                            <td>\n                              <table>\n                                <tr>\n                                  <td style=\"font-weight: bold\">low</td>\n                                  <td>\n                                    <table>\n                                      <tr>\n                                        <td style=\"font-weight: bold\">value</td>\n                                        <td>\n                                          <div title=\"value\">1</div>\n                                        </td>\n                                      </tr>\n                                      <tr>\n                                        <td style=\"font-weight: bold\">system</td>\n                                        <td>\n                                          <div title=\"system\">\n                                            <a href=\"http://unitsofmeasure.org\">http://unitsofmeasure.org</a>\n                                          </div>\n                                        </td>\n                                      </tr>\n                                      <tr>\n                                        <td style=\"font-weight: bold\">code</td>\n                                        <td>\n                                          <div title=\"code\">10*3/uL</div>\n                                        </td>\n                                      </tr>\n                                    </table>\n                                  </td>\n                                </tr>\n                                <tr>\n                                  <td style=\"font-weight: bold\">high</td>\n                                  <td>\n                                    <table>\n                                      <tr>\n                                        <td style=\"font-weight: bold\">value</td>\n                                        <td>\n                                          <div title=\"value\">4.8</div>\n                                        </td>\n                                      </tr>\n                                      <tr>\n                                        <td style=\"font-weight: bold\">system</td>\n                                        <td>\n                                          <div title=\"system\">\n                                            <a href=\"http://unitsofmeasure.org\">http://unitsofmeasure.org</a>\n                                          </div>\n                                        </td>\n                                      </tr>\n                                      <tr>\n                                        <td style=\"font-weight: bold\">code</td>\n                                        <td>\n                                          <div title=\"code\">10*3/uL</div>\n                                        </td>\n                                      </tr>\n                                    </table>\n                                  </td>\n                                </tr>\n                              </table>\n                            </td>\n                          </tr>\n                        </table>\n                      </td>\n                    </tr>\n                  </table>\n                </td>\n              </tr>\n              <tr>\n                <td style=\"font-weight: bold\">section</td>\n                <td>\n                  <table>\n                    <tr>\n                      <td style=\"font-weight: bold\">title</td>\n                      <td>\n                        <div title=\"title\">Plan of Treatment Section</div>\n                      </td>\n                    </tr>\n                    <tr>\n                      <td style=\"font-weight: bold\">code</td>\n                      <td>\n                        <ul style=\"list-style:none; padding-left:0; margin:0 0;\">\n                          <li>\n                            <ul style=\"list-style:none; padding-left:0; margin:0 0;\">\n                              <li>\n                                <div title=\"display\">Plan of care note</div>  (<div title=\"code\">18776-5</div> )\n          </li>\n                              <li>\n                                <div title=\"system\">\n                                  <a href=\"http://loinc.org\">http://loinc.org</a>\n                                </div>\n                              </li>\n                            </ul>\n                          </li>\n                        </ul>\n                      </td>\n                    </tr>\n                    <tr>\n                      <td style=\"font-weight: bold\">entry</td>\n                      <td>\n                        <ul style=\"list-style:none; padding-left:0; margin:0 0;\">\n                          <li>\n                            <b>Trigger code</b>\n                          </li>\n                          <li>Trigger Code: </li>\n                          <li>Trigger Code Display: </li>\n                          <li>Trigger Code System: </li>\n                          <li>Trigger Code Value Set: urn:oid:2.16.840.1.114222.4.11.7508</li>\n                          <li>Trigger Code Value Set Version: 19/05/2018</li>\n                        </ul>\n                        <a href=\"ServiceRequest-servicerequest-eicr-zika.html\">Request for Zika virus envelope (E) gene [Presence] in Serum by Probe and target amplification method</a>\n                        <table>\n                          <tr>\n                            <td style=\"font-weight: bold\">id</td>\n                            <td>\n                              <div title=\"id\">servicerequest-eicr-zika</div>\n                            </td>\n                          </tr>\n                          <tr>\n                            <td style=\"font-weight: bold\">meta</td>\n                            <td>\n                              <table>\n                                <tr>\n                                  <td style=\"font-weight: bold\">versionId</td>\n                                  <td>\n                                    <div title=\"versionId\">9</div>\n                                  </td>\n                                </tr>\n                                <tr>\n                                  <td style=\"font-weight: bold\">lastUpdated</td>\n                                  <td>\n                                    <div title=\"lastUpdated\">2019-10-23T13:56:36.000-04:00</div>\n                                  </td>\n                                </tr>\n                                <tr>\n                                  <td style=\"font-weight: bold\">profile</td>\n                                  <td>\n                                    <div title=\"profile\">http://hl7.org/fhir/us/ecr/StructureDefinition/eicr-servicerequest</div>\n                                  </td>\n                                </tr>\n                              </table>\n                            </td>\n                          </tr>\n                          <tr>\n                            <td style=\"font-weight: bold\">status</td>\n                            <td>\n                              <div title=\"status\">completed</div>\n                            </td>\n                          </tr>\n                          <tr>\n                            <td style=\"font-weight: bold\">intent</td>\n                            <td>\n                              <div title=\"intent\">order</div>\n                            </td>\n                          </tr>\n                          <tr>\n                            <td style=\"font-weight: bold\">category</td>\n                            <td>\n                              <ul style=\"list-style:none; padding-left:0; margin:0 0;\">\n                                <li>\n                                  <div title=\"text\">Diagnostics Procedure</div>\n                                </li>\n                                <li>\n                                  <ul style=\"list-style:none; padding-left:0; margin:0 0;\">\n                                    <li>\n                                      <div title=\"display\">Diagnostic procedure (procedure)</div>  (<div title=\"code\">103693007</div> )\n          </li>\n                                    <li>\n                                      <div title=\"system\">\n                                        <a href=\"http://snomed.info/sct\">http://snomed.info/sct</a>\n                                      </div>\n                                    </li>\n                                  </ul>\n                                </li>\n                              </ul>\n                            </td>\n                          </tr>\n                          <tr>\n                            <td style=\"font-weight: bold\">code</td>\n                            <td>\n                              <ul style=\"list-style:none; padding-left:0; margin:0 0;\">\n                                <li>\n                                  <div title=\"text\">Zika RT-PCR</div>\n                                </li>\n                                <li>\n                                  <ul style=\"list-style:none; padding-left:0; margin:0 0;\">\n                                    <li>\n                                      <div title=\"display\">Zika virus envelope E gene [Presence] in Serum by NAA with probe detection</div>  (<div title=\"code\">80825-3</div> )\n          </li>\n                                    <li>\n                                      <div title=\"system\">\n                                        <a href=\"http://loinc.org\">http://loinc.org</a>\n                                      </div>\n                                    </li>\n                                  </ul>\n                                </li>\n                              </ul>\n                            </td>\n                          </tr>\n                          <tr>\n                            <td style=\"font-weight: bold\">subject</td>\n                            <td>\n                              <ul style=\"list-style:none; padding-left:0; margin:0 0;\">\n                                <li/>\n                                <li>\n                                  <a href=\"Patient-patient-ecr-eve-everywoman.html\">Eve Everywoman</a>\n                                </li>\n                              </ul>\n                            </td>\n                          </tr>\n                          <tr>\n                            <td style=\"font-weight: bold\">performer</td>\n                            <td>\n                              <ul style=\"list-style:none; padding-left:0; margin:0 0;\">\n                                <li/>\n                                <li>\n                                  <a href=\"Organization-organization-ecr-acme-laboratory.html\">Acme Labs</a>\n                                </li>\n                              </ul>\n                            </td>\n                          </tr>\n                        </table>\n                      </td>\n                    </tr>\n                  </table>\n                </td>\n              </tr>\n            </table>\n          </div>"
        },
        "extension": [
          {
            "url": "http://hl7.org/fhir/StructureDefinition/composition-clinicaldocument-versionNumber",
            "valueString": "1"
          }
        ],
        "identifier": {
          "value": "c03eab8c-11e8-4d0c-ad2a-b385395e27db"
        },
        "status": "final",
        "type": {
          "coding": [
            {
              "system": "http://loinc.org",
              "code": "55751-2",
              "display": "Public Health Case Report"
            }
          ]
        },
        "subject": {
          "reference": "Patient/patient-ecr-eve-everywoman",
          "display": "Eve Everywoman"
        },
        "encounter": {
          "reference": "Encounter/encounter-eicr-eve-everywoman-outpatient",
          "display": "Ambulatory Office Visit"
        },
        "date": "2018-01-02T22:13:23Z",
        "author": [
          {
            "reference": "PractitionerRole/practitionerrole-henry-seven",
            "display": "Henry Seven, MD"
          }
        ],
        "title": "Initial Public Health Case Report - Zika Example",
        "section": [
          {
            "title": "History of Present Illness Section",
            "code": {
              "coding": [
                {
                  "system": "http://loinc.org",
                  "code": "10164-2",
                  "display": "History of Present illness Narrative"
                }
              ]
            },
            "text": {
              "status": "generated",
              "div": "<div xmlns=\"http://www.w3.org/1999/xhtml\" lang=\"en-US\">\n              <table xmlns:xsl=\"http://www.w3.org/1999/XSL/Transform\">\n                <tr>\n                  <td style=\"font-weight: bold\">title</td>\n                  <td>\n                    <div title=\"title\">History of Present Illness Section</div>\n                  </td>\n                </tr>\n                <tr>\n                  <td style=\"font-weight: bold\">code</td>\n                  <td>\n                    <ul style=\"list-style:none; padding-left:0; margin:0 0;\">\n                      <li>\n                        <ul style=\"list-style:none; padding-left:0; margin:0 0;\">\n                          <li>\n                            <div title=\"display\">History of Present illness Narrative</div>  (<div title=\"code\">10164-2</div> )\n          </li>\n                          <li>\n                            <div title=\"system\">\n                              <a href=\"http://loinc.org\">http://loinc.org</a>\n                            </div>\n                          </li>\n                        </ul>\n                      </li>\n                    </ul>\n                  </td>\n                </tr>\n                <tr>\n                  <td colspan=\"2\" lang=\"en-US\" class=\"text-no-entries\">\n                Persistent Cough REPORTED starting on 2018/03/05\n                \n                            \n                            <br/> Whooping Respiration not reported\n                \n                            \n                            <br/> Paroxysms Of Coughing REPORTED starting on 2018/03/06\n                \n                            \n                            <br/> Post-tussive vomiting not reported\n         \n                        \n                        </td>\n                </tr>\n              </table>\n            </div>"
            }
          },
          {
            "title": "Reason for Visit Section",
            "code": {
              "coding": [
                {
                  "system": "http://loinc.org",
                  "code": "29299-5",
                  "display": "Reason for visit Narrative"
                }
              ]
            },
            "text": {
              "status": "generated",
              "div": "<div xmlns=\"http://www.w3.org/1999/xhtml\" lang=\"en-US\">\n              <table xmlns:xsl=\"http://www.w3.org/1999/XSL/Transform\">\n                <tr>\n                  <td style=\"font-weight: bold\">title</td>\n                  <td>\n                    <div title=\"title\">Reason for Visit Section</div>\n                  </td>\n                </tr>\n                <tr>\n                  <td style=\"font-weight: bold\">code</td>\n                  <td>\n                    <ul style=\"list-style:none; padding-left:0; margin:0 0;\">\n                      <li>\n                        <ul style=\"list-style:none; padding-left:0; margin:0 0;\">\n                          <li>\n                            <div title=\"display\">Reason for visit Narrative</div>  (<div title=\"code\">29299-5</div> )\n          </li>\n                          <li>\n                            <div title=\"system\">\n                              <a href=\"http://loinc.org\">http://loinc.org</a>\n                            </div>\n                          </li>\n                        </ul>\n                      </li>\n                    </ul>\n                  </td>\n                </tr>\n                <tr>\n                  <td colspan=\"2\" lang=\"en-US\" class=\"text-no-entries\">\n                    <p>Bad cough</p>\n                  </td>\n                </tr>\n              </table>\n            </div>"
            }
          },
          {
            "title": "Problems Section",
            "code": {
              "coding": [
                {
                  "system": "http://loinc.org",
                  "code": "11450-4",
                  "display": "Problem list - Reported"
                }
              ]
            },
            "text": {
              "status": "generated",
              "div": "<div xmlns=\"http://www.w3.org/1999/xhtml\" lang=\"en-US\">\n              <table xmlns:xsl=\"http://www.w3.org/1999/XSL/Transform\">\n                <tr>\n                  <td style=\"font-weight: bold\">title</td>\n                  <td>\n                    <div title=\"title\">Problems Section</div>\n                  </td>\n                </tr>\n                <tr>\n                  <td style=\"font-weight: bold\">code</td>\n                  <td>\n                    <ul style=\"list-style:none; padding-left:0; margin:0 0;\">\n                      <li>\n                        <ul style=\"list-style:none; padding-left:0; margin:0 0;\">\n                          <li>\n                            <div title=\"display\">Problem list - Reported</div>  (<div title=\"code\">11450-4</div> )\n          </li>\n                          <li>\n                            <div title=\"system\">\n                              <a href=\"http://loinc.org\">http://loinc.org</a>\n                            </div>\n                          </li>\n                        </ul>\n                      </li>\n                    </ul>\n                  </td>\n                </tr>\n                <tr>\n                  <td style=\"font-weight: bold\">entry</td>\n                  <td>\n                    <a href=\"Condition-condition-eicr-eve-everywoman-common-cold.html\">Common cold (disorder)</a>\n                    <table>\n                      <tr>\n                        <td style=\"font-weight: bold\">id</td>\n                        <td>\n                          <div title=\"id\">condition-eicr-eve-everywoman-common-cold</div>\n                        </td>\n                      </tr>\n                      <tr>\n                        <td style=\"font-weight: bold\">meta</td>\n                        <td>\n                          <table>\n                            <tr>\n                              <td style=\"font-weight: bold\">versionId</td>\n                              <td>\n                                <div title=\"versionId\">15</div>\n                              </td>\n                            </tr>\n                            <tr>\n                              <td style=\"font-weight: bold\">lastUpdated</td>\n                              <td>\n                                <div title=\"lastUpdated\">2019-10-10T21:21:49.000-04:00</div>\n                              </td>\n                            </tr>\n                            <tr>\n                              <td style=\"font-weight: bold\">profile</td>\n                              <td>\n                                <div title=\"profile\">http://hl7.org/fhir/us/ecr/StructureDefinition/eicr-condition</div>\n                              </td>\n                            </tr>\n                          </table>\n                        </td>\n                      </tr>\n                      <tr>\n                        <td style=\"font-weight: bold\">category</td>\n                        <td>\n                          <ul style=\"list-style:none; padding-left:0; margin:0 0;\">\n                            <li>\n                              <ul style=\"list-style:none; padding-left:0; margin:0 0;\">\n                                <li>\n                                  <div title=\"display\">Problem List Item</div>  (<div title=\"code\">problem-list-item</div> )\n          </li>\n                                <li>\n                                  <div title=\"system\">\n                                    <a href=\"http://terminology.hl7.org/CodeSystem/condition-category\">http://terminology.hl7.org/CodeSystem/condition-category</a>\n                                  </div>\n                                </li>\n                              </ul>\n                            </li>\n                          </ul>\n                        </td>\n                      </tr>\n                      <tr>\n                        <td style=\"font-weight: bold\">code</td>\n                        <td>\n                          <ul style=\"list-style:none; padding-left:0; margin:0 0;\">\n                            <li>\n                              <ul style=\"list-style:none; padding-left:0; margin:0 0;\">\n                                <li>\n                                  <div title=\"display\">Common cold (disorder)</div>  (<div title=\"code\">82272006</div> )\n          </li>\n                                <li>\n                                  <div title=\"system\">\n                                    <a href=\"http://snomed.info/sct\">http://snomed.info/sct</a>\n                                  </div>\n                                </li>\n                              </ul>\n                            </li>\n                          </ul>\n                        </td>\n                      </tr>\n                      <tr>\n                        <td style=\"font-weight: bold\">subject</td>\n                        <td>\n                          <ul style=\"list-style:none; padding-left:0; margin:0 0;\">\n                            <li/>\n                            <li>\n                              <a href=\"Patient-patient-ecr-eve-everywoman.html\">Eve Everywoman</a>\n                            </li>\n                          </ul>\n                        </td>\n                      </tr>\n                      <tr>\n                        <td style=\"font-weight: bold\">onsetDateTime</td>\n                        <td>\n                          <div title=\"onsetDateTime\">2017-09-23</div>\n                        </td>\n                      </tr>\n                      <tr>\n                        <td style=\"font-weight: bold\">asserter</td>\n                        <td>\n                          <ul style=\"list-style:none; padding-left:0; margin:0 0;\">\n                            <li/>\n                            <li>\n                              <a href=\"Practitioner-practitioner-us-core-henry-seven.html\">Henry Seven, MD</a>\n                            </li>\n                          </ul>\n                        </td>\n                      </tr>\n                    </table>\n                  </td>\n                </tr>\n              </table>\n            </div>"
            },
            "entry": [
              {
                "reference": "Condition/condition-eicr-eve-everywoman-common-cold",
                "display": "Common cold (disorder)"
              }
            ]
          },
          {
            "title": "Social History Section",
            "code": {
              "coding": [
                {
                  "system": "http://loinc.org",
                  "code": "29762-2",
                  "display": "Social history Narrative"
                }
              ]
            },
            "text": {
              "status": "generated",
              "div": "<div xmlns=\"http://www.w3.org/1999/xhtml\" lang=\"en-US\">\n              <table xmlns:xsl=\"http://www.w3.org/1999/XSL/Transform\">\n                <tr>\n                  <td style=\"font-weight: bold\">title</td>\n                  <td>\n                    <div title=\"title\">Social History Section</div>\n                  </td>\n                </tr>\n                <tr>\n                  <td style=\"font-weight: bold\">code</td>\n                  <td>\n                    <ul style=\"list-style:none; padding-left:0; margin:0 0;\">\n                      <li>\n                        <ul style=\"list-style:none; padding-left:0; margin:0 0;\">\n                          <li>\n                            <div title=\"display\">Social history Narrative</div>  (<div title=\"code\">29762-2</div> )\n          </li>\n                          <li>\n                            <div title=\"system\">\n                              <a href=\"http://loinc.org\">http://loinc.org</a>\n                            </div>\n                          </li>\n                        </ul>\n                      </li>\n                    </ul>\n                  </td>\n                </tr>\n                <tr>\n                  <td style=\"font-weight: bold\">entry</td>\n                  <td>\n                    <a href=\"Observation-observation-travel-history-eve-everywoman-201801.html\">eICR Travel History: Eve Everywoman 2018-01</a>\n                    <table>\n                      <tr>\n                        <td style=\"font-weight: bold\">id</td>\n                        <td>\n                          <div title=\"id\">observation-travel-history-eve-everywoman-201801</div>\n                        </td>\n                      </tr>\n                      <tr>\n                        <td style=\"font-weight: bold\">meta</td>\n                        <td>\n                          <table>\n                            <tr>\n                              <td style=\"font-weight: bold\">versionId</td>\n                              <td>\n                                <div title=\"versionId\">11</div>\n                              </td>\n                            </tr>\n                            <tr>\n                              <td style=\"font-weight: bold\">lastUpdated</td>\n                              <td>\n                                <div title=\"lastUpdated\">2019-10-05T03:15:42.000-04:00</div>\n                              </td>\n                            </tr>\n                            <tr>\n                              <td style=\"font-weight: bold\">profile</td>\n                              <td>\n                                <div title=\"profile\">http://hl7.org/fhir/us/ecr/StructureDefinition/travel-history-observation</div>\n                              </td>\n                            </tr>\n                          </table>\n                        </td>\n                      </tr>\n                      <tr>\n                        <td style=\"font-weight: bold\">status</td>\n                        <td>\n                          <div title=\"status\">final</div>\n                        </td>\n                      </tr>\n                      <tr>\n                        <td style=\"font-weight: bold\">code</td>\n                        <td>\n                          <ul style=\"list-style:none; padding-left:0; margin:0 0;\">\n                            <li>\n                              <div title=\"text\">Travel History</div>\n                            </li>\n                            <li>\n                              <ul style=\"list-style:none; padding-left:0; margin:0 0;\">\n                                <li>\n                                  <div title=\"display\">Travel</div>  (<div title=\"code\">420008001</div> )\n          </li>\n                                <li>\n                                  <div title=\"system\">\n                                    <a href=\"http://snomed.info/sct\">http://snomed.info/sct</a>\n                                  </div>\n                                </li>\n                              </ul>\n                            </li>\n                          </ul>\n                        </td>\n                      </tr>\n                      <tr>\n                        <td style=\"font-weight: bold\">subject</td>\n                        <td>\n                          <ul style=\"list-style:none; padding-left:0; margin:0 0;\">\n                            <li/>\n                            <li>\n                              <a href=\"Patient-patient-ecr-eve-everywoman.html\">Eve Everywoman</a>\n                            </li>\n                          </ul>\n                        </td>\n                      </tr>\n                      <tr>\n                        <td style=\"font-weight: bold\">effectivePeriod</td>\n                        <td>\n                          <table>\n                            <tr>\n                              <td style=\"font-weight: bold\">start</td>\n                              <td>\n                                <div title=\"start\">2018-01-15</div>\n                              </td>\n                            </tr>\n                            <tr>\n                              <td style=\"font-weight: bold\">end</td>\n                              <td>\n                                <div title=\"end\">2018-01-30</div>\n                              </td>\n                            </tr>\n                          </table>\n                        </td>\n                      </tr>\n                      <tr>\n                        <td style=\"font-weight: bold\">component</td>\n                        <td>\n                          <table>\n                            <tr>\n                              <td style=\"font-weight: bold\">code</td>\n                              <td>\n                                <ul style=\"list-style:none; padding-left:0; margin:0 0;\">\n                                  <li>\n                                    <ul style=\"list-style:none; padding-left:0; margin:0 0;\">\n                                      <li>\n                                        <div title=\"display\">Location</div>  (<div title=\"code\">LOC</div> )\n          </li>\n                                      <li>\n                                        <div title=\"system\">\n                                          <a href=\"http://terminology.hl7.org/CodeSystem/v3-ParticipationType\">http://terminology.hl7.org/CodeSystem/v3-ParticipationType</a>\n                                        </div>\n                                      </li>\n                                    </ul>\n                                  </li>\n                                </ul>\n                              </td>\n                            </tr>\n                            <tr>\n                              <td style=\"font-weight: bold\">valueCodeableConcept</td>\n                              <td>\n                                <ul style=\"list-style:none; padding-left:0; margin:0 0;\">\n                                  <li>\n                                    <ul style=\"list-style:none; padding-left:0; margin:0 0;\">\n                                      <li>\n                                        <div title=\"display\">Fiji</div>  (<div title=\"code\">FJI</div> )\n          </li>\n                                      <li>\n                                        <div title=\"system\">urn:iso:std:iso:3166</div>\n                                      </li>\n                                    </ul>\n                                  </li>\n                                </ul>\n                              </td>\n                            </tr>\n                          </table>\n                        </td>\n                      </tr>\n                      <tr>\n                        <td style=\"font-weight: bold\">component</td>\n                        <td>\n                          <table>\n                            <tr>\n                              <td style=\"font-weight: bold\">code</td>\n                              <td>\n                                <ul style=\"list-style:none; padding-left:0; margin:0 0;\">\n                                  <li>\n                                    <ul style=\"list-style:none; padding-left:0; margin:0 0;\">\n                                      <li>\n                                        <div title=\"display\">Location</div>  (<div title=\"code\">LOC</div> )\n          </li>\n                                      <li>\n                                        <div title=\"system\">\n                                          <a href=\"http://terminology.hl7.org/CodeSystem/v3-ParticipationType\">http://terminology.hl7.org/CodeSystem/v3-ParticipationType</a>\n                                        </div>\n                                      </li>\n                                    </ul>\n                                  </li>\n                                </ul>\n                              </td>\n                            </tr>\n                            <tr>\n                              <td style=\"font-weight: bold\">valueCodeableConcept</td>\n                              <td>\n                                <ul style=\"list-style:none; padding-left:0; margin:0 0;\">\n                                  <li>\n                                    <ul style=\"list-style:none; padding-left:0; margin:0 0;\">\n                                      <li>\n                                        <div title=\"display\">Vanuatu</div>  (<div title=\"code\">VUT</div> )\n          </li>\n                                      <li>\n                                        <div title=\"system\"><a href=\"https://phinvads.cdc.gov/vads/ViewCodeSystem.action?id=1.0.3166.1\">https://phinvads.cdc.gov/vads/ViewCodeSystem.action?id=1.0.3166.1</a></div>\n                                      </li>\n                                    </ul>\n                                  </li>\n                                </ul>\n                              </td>\n                            </tr>\n                          </table>\n                        </td>\n                      </tr>\n                    </table>\n                  </td>\n                </tr>\n                <tr>\n                  <td style=\"font-weight: bold\">entry</td>\n                  <td>\n                    <a href=\"Observation-observation-odh-usual-work-eve-everywoman.html\">ODH Usual Work Example</a>\n                    <table>\n                      <tr>\n                        <td style=\"font-weight: bold\">id</td>\n                        <td>\n                          <div title=\"id\">observation-odh-usual-work-eve-everywoman</div>\n                        </td>\n                      </tr>\n                      <tr>\n                        <td style=\"font-weight: bold\">meta</td>\n                        <td>\n                          <table>\n                            <tr>\n                              <td style=\"font-weight: bold\">versionId</td>\n                              <td>\n                                <div title=\"versionId\">2</div>\n                              </td>\n                            </tr>\n                            <tr>\n                              <td style=\"font-weight: bold\">lastUpdated</td>\n                              <td>\n                                <div title=\"lastUpdated\">2019-10-20T10:53:14.000-04:00</div>\n                              </td>\n                            </tr>\n                            <tr>\n                              <td style=\"font-weight: bold\">profile</td>\n                              <td>\n                                <div title=\"profile\">http://hl7.org/fhir/us/odh/StructureDefinition/odh-UsualWork</div>\n                              </td>\n                            </tr>\n                          </table>\n                        </td>\n                      </tr>\n                      <tr>\n                        <td style=\"font-weight: bold\">status</td>\n                        <td>\n                          <div title=\"status\">final</div>\n                        </td>\n                      </tr>\n                      <tr>\n                        <td style=\"font-weight: bold\">code</td>\n                        <td>\n                          <ul style=\"list-style:none; padding-left:0; margin:0 0;\">\n                            <li>\n                              <ul style=\"list-style:none; padding-left:0; margin:0 0;\">\n                                <li>\n                                  <div title=\"display\">History of Usual occupation</div>  (<div title=\"code\">21843-8</div> )\n          </li>\n                                <li>\n                                  <div title=\"system\">\n                                    <a href=\"http://loinc.org\">http://loinc.org</a>\n                                  </div>\n                                </li>\n                              </ul>\n                            </li>\n                          </ul>\n                        </td>\n                      </tr>\n                      <tr>\n                        <td style=\"font-weight: bold\">subject</td>\n                        <td>\n                          <ul style=\"list-style:none; padding-left:0; margin:0 0;\">\n                            <li/>\n                            <li>\n                              <a href=\"Patient-patient-ecr-eve-everywoman.html\">Eve Everywoman</a>\n                            </li>\n                          </ul>\n                        </td>\n                      </tr>\n                      <tr>\n                        <td style=\"font-weight: bold\">effectivePeriod</td>\n                        <td>\n                          <table>\n                            <tr>\n                              <td style=\"font-weight: bold\">start</td>\n                              <td>\n                                <div title=\"start\">2015-01-01</div>\n                              </td>\n                            </tr>\n                            <tr>\n                              <td style=\"font-weight: bold\">end</td>\n                              <td>\n                                <div title=\"end\">2018-03-07</div>\n                              </td>\n                            </tr>\n                          </table>\n                        </td>\n                      </tr>\n                      <tr>\n                        <td style=\"font-weight: bold\">valueCodeableConcept</td>\n                        <td>\n                          <ul style=\"list-style:none; padding-left:0; margin:0 0;\">\n                            <li>\n                              <ul style=\"list-style:none; padding-left:0; margin:0 0;\">\n                                <li>\n                                  <div title=\"display\">Human Resources Managers</div>  (<div title=\"code\">0136</div> )\n          </li>\n                                <li>\n                                  <div title=\"system\"><a href=\"https://phinvads.cdc.gov/vads/ViewCodeSystem.action?id=2.16.840.1.114222.4.5.314\">https://phinvads.cdc.gov/vads/ViewCodeSystem.action?id=2.16.840.1.114222.4.5.314</a></div>\n                                </li>\n                              </ul>\n                            </li>\n                          </ul>\n                        </td>\n                      </tr>\n                      <tr>\n                        <td style=\"font-weight: bold\">component</td>\n                        <td>\n                          <table>\n                            <tr>\n                              <td style=\"font-weight: bold\">code</td>\n                              <td>\n                                <ul style=\"list-style:none; padding-left:0; margin:0 0;\">\n                                  <li>\n                                    <ul style=\"list-style:none; padding-left:0; margin:0 0;\">\n                                      <li>\n                                        <div title=\"display\">History of Usual industry</div>  (<div title=\"code\">21844-6</div> )\n          </li>\n                                      <li>\n                                        <div title=\"system\">\n                                          <a href=\"http://loinc.org\">http://loinc.org</a>\n                                        </div>\n                                      </li>\n                                    </ul>\n                                  </li>\n                                </ul>\n                              </td>\n                            </tr>\n                            <tr>\n                              <td style=\"font-weight: bold\">valueCodeableConcept</td>\n                              <td>\n                                <ul style=\"list-style:none; padding-left:0; margin:0 0;\">\n                                  <li>\n                                    <ul style=\"list-style:none; padding-left:0; margin:0 0;\">\n                                      <li>\n                                        <div title=\"display\">Hospitals</div>  (<div title=\"code\">8190</div> )\n          </li>\n                                      <li>\n                                        <div title=\"system\"><a href=\"https://phinvads.cdc.gov/vads/ViewCodeSystem.action?id=2.16.840.1.114222.4.5.315\">https://phinvads.cdc.gov/vads/ViewCodeSystem.action?id=2.16.840.1.114222.4.5.315</a></div>\n                                      </li>\n                                    </ul>\n                                  </li>\n                                </ul>\n                              </td>\n                            </tr>\n                          </table>\n                        </td>\n                      </tr>\n                    </table>\n                  </td>\n                </tr>\n              </table>\n            </div>"
            },
            "entry": [
              {
                "reference": "Observation/observation-travel-history-eve-everywoman-201801",
                "display": "eICR Travel History: Eve Everywoman 2018-01"
              },
              {
                "reference": "Observation/observation-odh-usual-work-eve-everywoman",
                "display": "ODH Usual Work Example"
              }
            ]
          },
          {
            "title": "Medications Administered Section",
            "code": {
              "coding": [
                {
                  "system": "http://loinc.org",
                  "code": "29549-3",
                  "display": "Medication administered Narrative"
                }
              ]
            },
            "text": {
              "status": "generated",
              "div": "<div xmlns=\"http://www.w3.org/1999/xhtml\" lang=\"en-US\">\n              <table xmlns:xsl=\"http://www.w3.org/1999/XSL/Transform\">\n                <tr>\n                  <td style=\"font-weight: bold\">title</td>\n                  <td>\n                    <div title=\"title\">Medications Administered Section</div>\n                  </td>\n                </tr>\n                <tr>\n                  <td style=\"font-weight: bold\">code</td>\n                  <td>\n                    <ul style=\"list-style:none; padding-left:0; margin:0 0;\">\n                      <li>\n                        <ul style=\"list-style:none; padding-left:0; margin:0 0;\">\n                          <li>\n                            <div title=\"display\">Medication administered Narrative</div>  (<div title=\"code\">29549-3</div> )\n          </li>\n                          <li>\n                            <div title=\"system\">\n                              <a href=\"http://loinc.org\">http://loinc.org</a>\n                            </div>\n                          </li>\n                        </ul>\n                      </li>\n                    </ul>\n                  </td>\n                </tr>\n                <tr>\n                  <td style=\"font-weight: bold\">entry</td>\n                  <td>\n                    <a href=\"MedicationAdministration-medicationadministration-eve-everywoman-azithromycin.html\">Azithromycin 500 MG Oral Tablet</a>\n                    <table>\n                      <tr>\n                        <td style=\"font-weight: bold\">id</td>\n                        <td>\n                          <div title=\"id\">medicationadministration-eve-everywoman-azithromycin</div>\n                        </td>\n                      </tr>\n                      <tr>\n                        <td style=\"font-weight: bold\">meta</td>\n                        <td>\n                          <table>\n                            <tr>\n                              <td style=\"font-weight: bold\">versionId</td>\n                              <td>\n                                <div title=\"versionId\">10</div>\n                              </td>\n                            </tr>\n                            <tr>\n                              <td style=\"font-weight: bold\">lastUpdated</td>\n                              <td>\n                                <div title=\"lastUpdated\">2019-10-05T03:11:22.000-04:00</div>\n                              </td>\n                            </tr>\n                          </table>\n                        </td>\n                      </tr>\n                      <tr>\n                        <td style=\"font-weight: bold\">status</td>\n                        <td>\n                          <div title=\"status\">completed</div>\n                        </td>\n                      </tr>\n                      <tr>\n                        <td style=\"font-weight: bold\">medicationCodeableConcept</td>\n                        <td>\n                          <ul style=\"list-style:none; padding-left:0; margin:0 0;\">\n                            <li>\n                              <div title=\"text\">Azithromycin 500 MG Oral Tablet</div>\n                            </li>\n                            <li>\n                              <ul style=\"list-style:none; padding-left:0; margin:0 0;\">\n                                <li>\n                                  <div title=\"display\">Azithromycin 500 MG Oral Tablet</div>  (<div title=\"code\">248656</div> )\n          </li>\n                                <li>\n                                  <div title=\"system\">\n                                    <a href=\"http://www.nlm.nih.gov/research/umls/rxnorm\">http://www.nlm.nih.gov/research/umls/rxnorm</a>\n                                  </div>\n                                </li>\n                              </ul>\n                            </li>\n                          </ul>\n                        </td>\n                      </tr>\n                      <tr>\n                        <td style=\"font-weight: bold\">subject</td>\n                        <td>\n                          <ul style=\"list-style:none; padding-left:0; margin:0 0;\">\n                            <li/>\n                            <li>\n                              <a href=\"Patient-patient-ecr-eve-everywoman.html\">Eve Everywoman</a>\n                            </li>\n                          </ul>\n                        </td>\n                      </tr>\n                      <tr>\n                        <td style=\"font-weight: bold\">effectivePeriod</td>\n                        <td>\n                          <table>\n                            <tr>\n                              <td style=\"font-weight: bold\">start</td>\n                              <td>\n                                <div title=\"start\">2018-03-07</div>\n                              </td>\n                            </tr>\n                            <tr>\n                              <td style=\"font-weight: bold\">end</td>\n                              <td>\n                                <div title=\"end\">2018-03-07</div>\n                              </td>\n                            </tr>\n                          </table>\n                        </td>\n                      </tr>\n                      <tr>\n                        <td style=\"font-weight: bold\">dosage</td>\n                        <td>\n                          <table>\n                            <tr>\n                              <td style=\"font-weight: bold\">route</td>\n                              <td>\n                                <ul style=\"list-style:none; padding-left:0; margin:0 0;\">\n                                  <li>\n                                    <ul style=\"list-style:none; padding-left:0; margin:0 0;\">\n                                      <li>\n                                        <div title=\"display\">Oral Route</div>  (<div title=\"code\">26643006</div> )\n          </li>\n                                      <li>\n                                        <div title=\"system\">\n                                          <a href=\"http://snomed.info/sct\">http://snomed.info/sct</a>\n                                        </div>\n                                      </li>\n                                    </ul>\n                                  </li>\n                                </ul>\n                              </td>\n                            </tr>\n                            <tr>\n                              <td style=\"font-weight: bold\">method</td>\n                              <td>\n                                <ul style=\"list-style:none; padding-left:0; margin:0 0;\">\n                                  <li>\n                                    <ul style=\"list-style:none; padding-left:0; margin:0 0;\">\n                                      <li>\n                                        <div title=\"display\">Swallow - dosing instruction imperative (qualifier value)</div>  (<div title=\"code\">421521009</div> )\n          </li>\n                                      <li>\n                                        <div title=\"system\">\n                                          <a href=\"http://snomed.info/sct\">http://snomed.info/sct</a>\n                                        </div>\n                                      </li>\n                                    </ul>\n                                  </li>\n                                </ul>\n                              </td>\n                            </tr>\n                            <tr>\n                              <td style=\"font-weight: bold\">dose</td>\n                              <td>\n                                <table>\n                                  <tr>\n                                    <td style=\"font-weight: bold\">value</td>\n                                    <td>\n                                      <div title=\"value\">2</div>\n                                    </td>\n                                  </tr>\n                                  <tr>\n                                    <td style=\"font-weight: bold\">unit</td>\n                                    <td>\n                                      <div title=\"unit\">TAB</div>\n                                    </td>\n                                  </tr>\n                                  <tr>\n                                    <td style=\"font-weight: bold\">system</td>\n                                    <td>\n                                      <div title=\"system\">\n                                        <a href=\"http://terminology.hl7.org/CodeSystem/v3-orderableDrugForm\">http://terminology.hl7.org/CodeSystem/v3-orderableDrugForm</a>\n                                      </div>\n                                    </td>\n                                  </tr>\n                                  <tr>\n                                    <td style=\"font-weight: bold\">code</td>\n                                    <td>\n                                      <div title=\"code\">TAB</div>\n                                    </td>\n                                  </tr>\n                                </table>\n                              </td>\n                            </tr>\n                          </table>\n                        </td>\n                      </tr>\n                    </table>\n                  </td>\n                </tr>\n              </table>\n            </div>"
            },
            "entry": [
              {
                "reference": "MedicationAdministration/medicationadministration-eve-everywoman-azithromycin",
                "display": "Azithromycin 500 MG Oral Tablet"
              }
            ]
          },
          {
            "title": "Results Section",
            "code": {
              "coding": [
                {
                  "system": "http://loinc.org",
                  "code": "30954-2",
                  "display": "Relevant Dx tests/lab data"
                }
              ]
            },
            "text": {
              "status": "generated",
              "div": "<div xmlns=\"http://www.w3.org/1999/xhtml\" lang=\"en-US\">\n              <table xmlns:xsl=\"http://www.w3.org/1999/XSL/Transform\">\n                <tr>\n                  <td style=\"font-weight: bold\">title</td>\n                  <td>\n                    <div title=\"title\">Results Section</div>\n                  </td>\n                </tr>\n                <tr>\n                  <td style=\"font-weight: bold\">code</td>\n                  <td>\n                    <ul style=\"list-style:none; padding-left:0; margin:0 0;\">\n                      <li>\n                        <ul style=\"list-style:none; padding-left:0; margin:0 0;\">\n                          <li>\n                            <div title=\"display\">Relevant Dx tests/lab data</div>  (<div title=\"code\">30954-2</div> )\n          </li>\n                          <li>\n                            <div title=\"system\">\n                              <a href=\"http://loinc.org\">http://loinc.org</a>\n                            </div>\n                          </li>\n                        </ul>\n                      </li>\n                    </ul>\n                  </td>\n                </tr>\n                <tr>\n                  <td style=\"font-weight: bold\">entry</td>\n                  <td>\n                    <a href=\"Observation-observation-us-core-results-eve-everywoman-lymphocytes.html\">Lymphocytes [#/​volume] in Blood by Automated count - Interpretation: High</a>\n                    <table>\n                      <tr>\n                        <td style=\"font-weight: bold\">id</td>\n                        <td>\n                          <div title=\"id\">observation-us-core-results-eve-everywoman-lymphocytes</div>\n                        </td>\n                      </tr>\n                      <tr>\n                        <td style=\"font-weight: bold\">meta</td>\n                        <td>\n                          <table>\n                            <tr>\n                              <td style=\"font-weight: bold\">versionId</td>\n                              <td>\n                                <div title=\"versionId\">10</div>\n                              </td>\n                            </tr>\n                            <tr>\n                              <td style=\"font-weight: bold\">lastUpdated</td>\n                              <td>\n                                <div title=\"lastUpdated\">2019-10-05T02:50:13.000-04:00</div>\n                              </td>\n                            </tr>\n                            <tr>\n                              <td style=\"font-weight: bold\">profile</td>\n                              <td>\n                                <div title=\"profile\">http://hl7.org/fhir/us/core/StructureDefinition/us-core-observation-lab</div>\n                              </td>\n                            </tr>\n                          </table>\n                        </td>\n                      </tr>\n                      <tr>\n                        <td style=\"font-weight: bold\">status</td>\n                        <td>\n                          <div title=\"status\">final</div>\n                        </td>\n                      </tr>\n                      <tr>\n                        <td style=\"font-weight: bold\">category</td>\n                        <td>\n                          <ul style=\"list-style:none; padding-left:0; margin:0 0;\">\n                            <li>\n                              <div title=\"text\">Laboratory</div>\n                            </li>\n                            <li>\n                              <ul style=\"list-style:none; padding-left:0; margin:0 0;\">\n                                <li>\n                                  <div title=\"display\">Laboratory</div>  (<div title=\"code\">laboratory</div> )\n          </li>\n                                <li>\n                                  <div title=\"system\">\n                                    <a href=\"http://terminology.hl7.org/CodeSystem/observation-category\">http://terminology.hl7.org/CodeSystem/observation-category</a>\n                                  </div>\n                                </li>\n                              </ul>\n                            </li>\n                          </ul>\n                        </td>\n                      </tr>\n                      <tr>\n                        <td style=\"font-weight: bold\">code</td>\n                        <td>\n                          <ul style=\"list-style:none; padding-left:0; margin:0 0;\">\n                            <li>\n                              <ul style=\"list-style:none; padding-left:0; margin:0 0;\">\n                                <li>\n                                  <div title=\"display\">Lymphocytes [#/volume] in Blood by Automated count</div>  (<div title=\"code\">731-0</div> )\n          </li>\n                                <li>\n                                  <div title=\"system\">\n                                    <a href=\"http://loinc.org\">http://loinc.org</a>\n                                  </div>\n                                </li>\n                              </ul>\n                            </li>\n                          </ul>\n                        </td>\n                      </tr>\n                      <tr>\n                        <td style=\"font-weight: bold\">subject</td>\n                        <td>\n                          <ul style=\"list-style:none; padding-left:0; margin:0 0;\">\n                            <li/>\n                            <li>\n                              <a href=\"Patient-patient-ecr-eve-everywoman.html\">Eve Everywoman</a>\n                            </li>\n                          </ul>\n                        </td>\n                      </tr>\n                      <tr>\n                        <td style=\"font-weight: bold\">effectiveDateTime</td>\n                        <td>\n                          <div title=\"effectiveDateTime\">2018-03-07</div>\n                        </td>\n                      </tr>\n                      <tr>\n                        <td style=\"font-weight: bold\">valueQuantity</td>\n                        <td>\n                          <ul style=\"list-style:none; padding-left:0; margin:0 0;\">\n                            <li>\n                              <div title=\"value\">5.2</div>\n                            </li>\n                            <li>\n                              <div title=\"system\">\n                                <a href=\"http://unitsofmeasure.org\">http://unitsofmeasure.org</a>\n                              </div>\n                            </li>\n                            <li>\n                              <div title=\"code\">10*3/uL</div>\n                            </li>\n                          </ul>\n                        </td>\n                      </tr>\n                      <tr>\n                        <td style=\"font-weight: bold\">interpretation</td>\n                        <td>\n                          <ul style=\"list-style:none; padding-left:0; margin:0 0;\">\n                            <li>\n                              <ul style=\"list-style:none; padding-left:0; margin:0 0;\">\n                                <li>\n                                  <div title=\"display\">High</div>  (<div title=\"code\">H</div> )\n          </li>\n                                <li>\n                                  <div title=\"system\">\n                                    <a href=\"http://terminology.hl7.org/CodeSystem/v2-0078\">http://terminology.hl7.org/CodeSystem/v2-0078</a>\n                                  </div>\n                                </li>\n                              </ul>\n                            </li>\n                          </ul>\n                        </td>\n                      </tr>\n                      <tr>\n                        <td style=\"font-weight: bold\">referenceRange</td>\n                        <td>\n                          <table>\n                            <tr>\n                              <td style=\"font-weight: bold\">low</td>\n                              <td>\n                                <table>\n                                  <tr>\n                                    <td style=\"font-weight: bold\">value</td>\n                                    <td>\n                                      <div title=\"value\">1</div>\n                                    </td>\n                                  </tr>\n                                  <tr>\n                                    <td style=\"font-weight: bold\">system</td>\n                                    <td>\n                                      <div title=\"system\">\n                                        <a href=\"http://unitsofmeasure.org\">http://unitsofmeasure.org</a>\n                                      </div>\n                                    </td>\n                                  </tr>\n                                  <tr>\n                                    <td style=\"font-weight: bold\">code</td>\n                                    <td>\n                                      <div title=\"code\">10*3/uL</div>\n                                    </td>\n                                  </tr>\n                                </table>\n                              </td>\n                            </tr>\n                            <tr>\n                              <td style=\"font-weight: bold\">high</td>\n                              <td>\n                                <table>\n                                  <tr>\n                                    <td style=\"font-weight: bold\">value</td>\n                                    <td>\n                                      <div title=\"value\">4.8</div>\n                                    </td>\n                                  </tr>\n                                  <tr>\n                                    <td style=\"font-weight: bold\">system</td>\n                                    <td>\n                                      <div title=\"system\">\n                                        <a href=\"http://unitsofmeasure.org\">http://unitsofmeasure.org</a>\n                                      </div>\n                                    </td>\n                                  </tr>\n                                  <tr>\n                                    <td style=\"font-weight: bold\">code</td>\n                                    <td>\n                                      <div title=\"code\">10*3/uL</div>\n                                    </td>\n                                  </tr>\n                                </table>\n                              </td>\n                            </tr>\n                          </table>\n                        </td>\n                      </tr>\n                    </table>\n                  </td>\n                </tr>\n              </table>\n            </div>"
            },
            "entry": [
              {
                "reference": "Observation/observation-us-core-results-eve-everywoman-lymphocytes",
                "display": "Lymphocytes [#/​volume] in Blood by Automated count - Interpretation: High"
              }
            ]
          },
          {
            "title": "Plan of Treatment Section",
            "code": {
              "coding": [
                {
                  "system": "http://loinc.org",
                  "code": "18776-5",
                  "display": "Plan of care note"
                }
              ]
            },
            "text": {
              "status": "generated",
              "div": "<div xmlns=\"http://www.w3.org/1999/xhtml\" lang=\"en-US\">\n              <table xmlns:xsl=\"http://www.w3.org/1999/XSL/Transform\">\n                <tr>\n                  <td style=\"font-weight: bold\">title</td>\n                  <td>\n                    <div title=\"title\">Plan of Treatment Section</div>\n                  </td>\n                </tr>\n                <tr>\n                  <td style=\"font-weight: bold\">code</td>\n                  <td>\n                    <ul style=\"list-style:none; padding-left:0; margin:0 0;\">\n                      <li>\n                        <ul style=\"list-style:none; padding-left:0; margin:0 0;\">\n                          <li>\n                            <div title=\"display\">Plan of care note</div>  (<div title=\"code\">18776-5</div> )\n          </li>\n                          <li>\n                            <div title=\"system\">\n                              <a href=\"http://loinc.org\">http://loinc.org</a>\n                            </div>\n                          </li>\n                        </ul>\n                      </li>\n                    </ul>\n                  </td>\n                </tr>\n                <tr>\n                  <td style=\"font-weight: bold\">entry</td>\n                  <td>\n                    <ul style=\"list-style:none; padding-left:0; margin:0 0;\">\n                      <li>\n                        <b>Trigger code</b>\n                      </li>\n                      <li>Trigger Code: </li>\n                      <li>Trigger Code Display: </li>\n                      <li>Trigger Code System: </li>\n                      <li>Trigger Code Value Set: urn:oid:2.16.840.1.114222.4.11.7508</li>\n                      <li>Trigger Code Value Set Version: 19/05/2018</li>\n                    </ul>\n                    <a href=\"ServiceRequest-servicerequest-eicr-zika.html\">Request for Zika virus envelope (E) gene [Presence] in Serum by Probe and target amplification method</a>\n                    <table>\n                      <tr>\n                        <td style=\"font-weight: bold\">id</td>\n                        <td>\n                          <div title=\"id\">servicerequest-eicr-zika</div>\n                        </td>\n                      </tr>\n                      <tr>\n                        <td style=\"font-weight: bold\">meta</td>\n                        <td>\n                          <table>\n                            <tr>\n                              <td style=\"font-weight: bold\">versionId</td>\n                              <td>\n                                <div title=\"versionId\">9</div>\n                              </td>\n                            </tr>\n                            <tr>\n                              <td style=\"font-weight: bold\">lastUpdated</td>\n                              <td>\n                                <div title=\"lastUpdated\">2019-10-23T13:56:36.000-04:00</div>\n                              </td>\n                            </tr>\n                            <tr>\n                              <td style=\"font-weight: bold\">profile</td>\n                              <td>\n                                <div title=\"profile\">http://hl7.org/fhir/us/ecr/StructureDefinition/eicr-servicerequest</div>\n                              </td>\n                            </tr>\n                          </table>\n                        </td>\n                      </tr>\n                      <tr>\n                        <td style=\"font-weight: bold\">status</td>\n                        <td>\n                          <div title=\"status\">completed</div>\n                        </td>\n                      </tr>\n                      <tr>\n                        <td style=\"font-weight: bold\">intent</td>\n                        <td>\n                          <div title=\"intent\">order</div>\n                        </td>\n                      </tr>\n                      <tr>\n                        <td style=\"font-weight: bold\">category</td>\n                        <td>\n                          <ul style=\"list-style:none; padding-left:0; margin:0 0;\">\n                            <li>\n                              <div title=\"text\">Diagnostics Procedure</div>\n                            </li>\n                            <li>\n                              <ul style=\"list-style:none; padding-left:0; margin:0 0;\">\n                                <li>\n                                  <div title=\"display\">Diagnostic procedure (procedure)</div>  (<div title=\"code\">103693007</div> )\n          </li>\n                                <li>\n                                  <div title=\"system\">\n                                    <a href=\"http://snomed.info/sct\">http://snomed.info/sct</a>\n                                  </div>\n                                </li>\n                              </ul>\n                            </li>\n                          </ul>\n                        </td>\n                      </tr>\n                      <tr>\n                        <td style=\"font-weight: bold\">code</td>\n                        <td>\n                          <ul style=\"list-style:none; padding-left:0; margin:0 0;\">\n                            <li>\n                              <div title=\"text\">Zika RT-PCR</div>\n                            </li>\n                            <li>\n                              <ul style=\"list-style:none; padding-left:0; margin:0 0;\">\n                                <li>\n                                  <div title=\"display\">Zika virus envelope E gene [Presence] in Serum by NAA with probe detection</div>  (<div title=\"code\">80825-3</div> )\n          </li>\n                                <li>\n                                  <div title=\"system\">\n                                    <a href=\"http://loinc.org\">http://loinc.org</a>\n                                  </div>\n                                </li>\n                              </ul>\n                            </li>\n                          </ul>\n                        </td>\n                      </tr>\n                      <tr>\n                        <td style=\"font-weight: bold\">subject</td>\n                        <td>\n                          <ul style=\"list-style:none; padding-left:0; margin:0 0;\">\n                            <li/>\n                            <li>\n                              <a href=\"Patient-patient-ecr-eve-everywoman.html\">Eve Everywoman</a>\n                            </li>\n                          </ul>\n                        </td>\n                      </tr>\n                      <tr>\n                        <td style=\"font-weight: bold\">performer</td>\n                        <td>\n                          <ul style=\"list-style:none; padding-left:0; margin:0 0;\">\n                            <li/>\n                            <li>\n                              <a href=\"Organization-organization-ecr-acme-laboratory.html\">Acme Labs</a>\n                            </li>\n                          </ul>\n                        </td>\n                      </tr>\n                    </table>\n                  </td>\n                </tr>\n              </table>\n            </div>"
            },
            "entry": [
              {
                "extension": [
                  {
                    "url": "http://hl7.org/fhir/us/ecr/StructureDefinition/eicr-trigger-code-flag-extension",
                    "extension": [
                      {
                        "url": "triggerCodeValueSet",
                        "valueOid": "urn:oid:2.16.840.1.114222.4.11.7508"
                      },
                      {
                        "url": "triggerCodeValueSetVersion",
                        "valueString": "19/05/2018"
                      },
                      {
                        "url": "triggerCode",
                        "valueCoding": {
                          "system": "http://snomed.info/sct",
                          "code": "3928002",
                          "display": "Zika virus disease (disorder)"
                        }
                      }
                    ]
                  }
                ],
                "reference": "ServiceRequest/servicerequest-eicr-zika",
                "display": "Request for Zika virus envelope (E) gene [Presence] in Serum by Probe and target amplification method"
              }
            ]
          }
        ]
      }
    },
    {
      "fullUrl": "MedicationAdministration/medicationadministration-eve-everywoman-azithromycin",
      "resource": {
        "resourceType": "MedicationAdministration",
        "id": "medicationadministration-eve-everywoman-azithromycin",
        "meta": {
          "versionId": "10",
          "lastUpdated": "2019-10-05T03:11:22.000-04:00"
        },
        "text": {
          "status": "generated",
          "div": "<div xmlns=\"http://www.w3.org/1999/xhtml\" lang=\"en-US\">\n            <table xmlns:xsl=\"http://www.w3.org/1999/XSL/Transform\">\n              <tr>\n                <td style=\"font-weight: bold\">id</td>\n                <td>\n                  <div title=\"id\">medicationadministration-eve-everywoman-azithromycin</div>\n                </td>\n              </tr>\n              <tr>\n                <td style=\"font-weight: bold\">meta</td>\n                <td>\n                  <table>\n                    <tr>\n                      <td style=\"font-weight: bold\">versionId</td>\n                      <td>\n                        <div title=\"versionId\">10</div>\n                      </td>\n                    </tr>\n                    <tr>\n                      <td style=\"font-weight: bold\">lastUpdated</td>\n                      <td>\n                        <div title=\"lastUpdated\">2019-10-05T03:11:22.000-04:00</div>\n                      </td>\n                    </tr>\n                  </table>\n                </td>\n              </tr>\n              <tr>\n                <td style=\"font-weight: bold\">status</td>\n                <td>\n                  <div title=\"status\">completed</div>\n                </td>\n              </tr>\n              <tr>\n                <td style=\"font-weight: bold\">medicationCodeableConcept</td>\n                <td>\n                  <ul style=\"list-style:none; padding-left:0; margin:0 0;\">\n                    <li>\n                      <div title=\"text\">Azithromycin 500 MG Oral Tablet</div>\n                    </li>\n                    <li>\n                      <ul style=\"list-style:none; padding-left:0; margin:0 0;\">\n                        <li>\n                          <div title=\"display\">Azithromycin 500 MG Oral Tablet</div>  (<div title=\"code\">248656</div> )\n                        </li>\n                        <li>\n                          <div title=\"system\">\n                            <a href=\"http://www.nlm.nih.gov/research/umls/rxnorm\">http://www.nlm.nih.gov/research/umls/rxnorm</a>\n                          </div>\n                        </li>\n                      </ul>\n                    </li>\n                  </ul>\n                </td>\n              </tr>\n              <tr>\n                <td style=\"font-weight: bold\">subject</td>\n                <td>\n                  <ul style=\"list-style:none; padding-left:0; margin:0 0;\">\n                    <li/>\n                    <li>\n                      <a href=\"Patient-patient-ecr-eve-everywoman.html\">Eve Everywoman</a>\n                    </li>\n                  </ul>\n                </td>\n              </tr>\n              <tr>\n                <td style=\"font-weight: bold\">effectivePeriod</td>\n                <td>\n                  <table>\n                    <tr>\n                      <td style=\"font-weight: bold\">start</td>\n                      <td>\n                        <div title=\"start\">2018-03-07</div>\n                      </td>\n                    </tr>\n                    <tr>\n                      <td style=\"font-weight: bold\">end</td>\n                      <td>\n                        <div title=\"end\">2018-03-07</div>\n                      </td>\n                    </tr>\n                  </table>\n                </td>\n              </tr>\n              <tr>\n                <td style=\"font-weight: bold\">dosage</td>\n                <td>\n                  <table>\n                    <tr>\n                      <td style=\"font-weight: bold\">route</td>\n                      <td>\n                        <ul style=\"list-style:none; padding-left:0; margin:0 0;\">\n                          <li>\n                            <ul style=\"list-style:none; padding-left:0; margin:0 0;\">\n                              <li>\n                                <div title=\"display\">Oral Route</div>  (<div title=\"code\">26643006</div> )\n                              </li>\n                              <li>\n                                <div title=\"system\">\n                                  <a href=\"http://snomed.info/sct\">http://snomed.info/sct</a>\n                                </div>\n                              </li>\n                            </ul>\n                          </li>\n                        </ul>\n                      </td>\n                    </tr>\n                    <tr>\n                      <td style=\"font-weight: bold\">method</td>\n                      <td>\n                        <ul style=\"list-style:none; padding-left:0; margin:0 0;\">\n                          <li>\n                            <ul style=\"list-style:none; padding-left:0; margin:0 0;\">\n                              <li>\n                                <div title=\"display\">Swallow - dosing instruction imperative (qualifier value)</div>  (<div title=\"code\">421521009</div> )\n                              </li>\n                              <li>\n                                <div title=\"system\">\n                                  <a href=\"http://snomed.info/sct\">http://snomed.info/sct</a>\n                                </div>\n                              </li>\n                            </ul>\n                          </li>\n                        </ul>\n                      </td>\n                    </tr>\n                    <tr>\n                      <td style=\"font-weight: bold\">dose</td>\n                      <td>\n                        <table>\n                          <tr>\n                            <td style=\"font-weight: bold\">value</td>\n                            <td>\n                              <div title=\"value\">2</div>\n                            </td>\n                          </tr>\n                          <tr>\n                            <td style=\"font-weight: bold\">unit</td>\n                            <td>\n                              <div title=\"unit\">TAB</div>\n                            </td>\n                          </tr>\n                          <tr>\n                            <td style=\"font-weight: bold\">system</td>\n                            <td>\n                              <div title=\"system\">\n                                <a href=\"http://terminology.hl7.org/CodeSystem/v3-orderableDrugForm\">http://terminology.hl7.org/CodeSystem/v3-orderableDrugForm</a>\n                              </div>\n                            </td>\n                          </tr>\n                          <tr>\n                            <td style=\"font-weight: bold\">code</td>\n                            <td>\n                              <div title=\"code\">TAB</div>\n                            </td>\n                          </tr>\n                        </table>\n                      </td>\n                    </tr>\n                  </table>\n                </td>\n              </tr>\n            </table>\n          </div>"
        },
        "status": "completed",
        "medicationCodeableConcept": {
          "coding": [
            {
              "system": "http://www.nlm.nih.gov/research/umls/rxnorm",
              "code": "248656",
              "display": "Azithromycin 500 MG Oral Tablet"
            }
          ],
          "text": "Azithromycin 500 MG Oral Tablet"
        },
        "subject": {
          "reference": "Patient/patient-ecr-eve-everywoman",
          "display": "Eve Everywoman"
        },
        "effectivePeriod": {
          "start": "2018-03-07",
          "end": "2018-03-07"
        },
        "dosage": {
          "text": "Two tablets at once",
          "route": {
            "coding": [
              {
                "system": "http://snomed.info/sct",
                "code": "26643006",
                "display": "Oral Route"
              }
            ]
          },
          "method": {
            "coding": [
              {
                "system": "http://snomed.info/sct",
                "code": "421521009",
                "display": "Swallow - dosing instruction imperative (qualifier value)"
              }
            ]
          },
          "dose": {
            "value": 2,
            "unit": "TAB",
            "system": "http://terminology.hl7.org/CodeSystem/v3-orderableDrugForm",
            "code": "TAB"
          }
        }
      }
    },
    {
      "fullUrl": "Observation/observation-travel-history-eve-everywoman-201801",
      "resource": {
        "resourceType": "Observation",
        "id": "observation-travel-history-eve-everywoman-201801",
        "meta": {
          "versionId": "11",
          "lastUpdated": "2019-10-05T03:15:42.000-04:00",
          "profile": [
            "http://hl7.org/fhir/us/ecr/StructureDefinition/travel-history-observation"
          ]
        },
        "text": {
          "status": "generated",
          "div": "<div xmlns=\"http://www.w3.org/1999/xhtml\" lang=\"en-US\">\n            <table xmlns:xsl=\"http://www.w3.org/1999/XSL/Transform\">\n              <tr>\n                <td style=\"font-weight: bold\">id</td>\n                <td>\n                  <div title=\"id\">observation-travel-history-eve-everywoman-201801</div>\n                </td>\n              </tr>\n              <tr>\n                <td style=\"font-weight: bold\">meta</td>\n                <td>\n                  <table>\n                    <tr>\n                      <td style=\"font-weight: bold\">versionId</td>\n                      <td>\n                        <div title=\"versionId\">11</div>\n                      </td>\n                    </tr>\n                    <tr>\n                      <td style=\"font-weight: bold\">lastUpdated</td>\n                      <td>\n                        <div title=\"lastUpdated\">2019-10-05T03:15:42.000-04:00</div>\n                      </td>\n                    </tr>\n                    <tr>\n                      <td style=\"font-weight: bold\">profile</td>\n                      <td>\n                        <div title=\"profile\">http://hl7.org/fhir/us/ecr/StructureDefinition/travel-history-observation</div>\n                      </td>\n                    </tr>\n                  </table>\n                </td>\n              </tr>\n              <tr>\n                <td style=\"font-weight: bold\">status</td>\n                <td>\n                  <div title=\"status\">final</div>\n                </td>\n              </tr>\n              <tr>\n                <td style=\"font-weight: bold\">code</td>\n                <td>\n                  <ul style=\"list-style:none; padding-left:0; margin:0 0;\">\n                    <li>\n                      <div title=\"text\">Travel History</div>\n                    </li>\n                    <li>\n                      <ul style=\"list-style:none; padding-left:0; margin:0 0;\">\n                        <li>\n                          <div title=\"display\">Travel</div>  (<div title=\"code\">420008001</div> )\n                        </li>\n                        <li>\n                          <div title=\"system\">\n                            <a href=\"http://snomed.info/sct\">http://snomed.info/sct</a>\n                          </div>\n                        </li>\n                      </ul>\n                    </li>\n                  </ul>\n                </td>\n              </tr>\n              <tr>\n                <td style=\"font-weight: bold\">subject</td>\n                <td>\n                  <ul style=\"list-style:none; padding-left:0; margin:0 0;\">\n                    <li/>\n                    <li>\n                      <a href=\"Patient-patient-ecr-eve-everywoman.html\">Eve Everywoman</a>\n                    </li>\n                  </ul>\n                </td>\n              </tr>\n              <tr>\n                <td style=\"font-weight: bold\">effectivePeriod</td>\n                <td>\n                  <table>\n                    <tr>\n                      <td style=\"font-weight: bold\">start</td>\n                      <td>\n                        <div title=\"start\">2018-01-15</div>\n                      </td>\n                    </tr>\n                    <tr>\n                      <td style=\"font-weight: bold\">end</td>\n                      <td>\n                        <div title=\"end\">2018-01-30</div>\n                      </td>\n                    </tr>\n                  </table>\n                </td>\n              </tr>\n              <tr>\n                <td style=\"font-weight: bold\">component</td>\n                <td>\n                  <table>\n                    <tr>\n                      <td style=\"font-weight: bold\">code</td>\n                      <td>\n                        <ul style=\"list-style:none; padding-left:0; margin:0 0;\">\n                          <li>\n                            <ul style=\"list-style:none; padding-left:0; margin:0 0;\">\n                              <li>\n                                <div title=\"display\">Location</div>  (<div title=\"code\">LOC</div> )\n                              </li>\n                              <li>\n                                <div title=\"system\">\n                                  <a href=\"http://terminology.hl7.org/CodeSystem/v3-ParticipationType\">http://terminology.hl7.org/CodeSystem/v3-ParticipationType</a>\n                                </div>\n                              </li>\n                            </ul>\n                          </li>\n                        </ul>\n                      </td>\n                    </tr>\n                    <tr>\n                      <td style=\"font-weight: bold\">valueCodeableConcept</td>\n                      <td>\n                        <ul style=\"list-style:none; padding-left:0; margin:0 0;\">\n                          <li>\n                            <ul style=\"list-style:none; padding-left:0; margin:0 0;\">\n                              <li>\n                                <div title=\"display\">Fiji</div>  (<div title=\"code\">FJI</div> )\n                              </li>\n                              <li>\n                                <div title=\"system\">urn:iso:std:iso:3166</div>\n                              </li>\n                            </ul>\n                          </li>\n                        </ul>\n                      </td>\n                    </tr>\n                  </table>\n                </td>\n              </tr>\n              <tr>\n                <td style=\"font-weight: bold\">component</td>\n                <td>\n                  <table>\n                    <tr>\n                      <td style=\"font-weight: bold\">code</td>\n                      <td>\n                        <ul style=\"list-style:none; padding-left:0; margin:0 0;\">\n                          <li>\n                            <ul style=\"list-style:none; padding-left:0; margin:0 0;\">\n                              <li>\n                                <div title=\"display\">Location</div>  (<div title=\"code\">LOC</div> )\n                              </li>\n                              <li>\n                                <div title=\"system\">\n                                  <a href=\"http://terminology.hl7.org/CodeSystem/v3-ParticipationType\">http://terminology.hl7.org/CodeSystem/v3-ParticipationType</a>\n                                </div>\n                              </li>\n                            </ul>\n                          </li>\n                        </ul>\n                      </td>\n                    </tr>\n                    <tr>\n                      <td style=\"font-weight: bold\">valueCodeableConcept</td>\n                      <td>\n                        <ul style=\"list-style:none; padding-left:0; margin:0 0;\">\n                          <li>\n                            <ul style=\"list-style:none; padding-left:0; margin:0 0;\">\n                              <li>\n                                <div title=\"display\">Vanuatu</div>  (<div title=\"code\">VUT</div> )\n                              </li>\n                              <li>\n                                <div title=\"system\"><a href=\"https://phinvads.cdc.gov/vads/ViewCodeSystem.action?id=1.0.3166.1\">https://phinvads.cdc.gov/vads/ViewCodeSystem.action?id=1.0.3166.1</a></div>\n                              </li>\n                            </ul>\n                          </li>\n                        </ul>\n                      </td>\n                    </tr>\n                  </table>\n                </td>\n              </tr>\n            </table>\n          </div>"
        },
        "status": "final",
        "code": {
          "coding": [
            {
              "system": "http://snomed.info/sct",
              "code": "420008001",
              "display": "Travel"
            }
          ],
          "text": "Travel History"
        },
        "subject": {
          "reference": "Patient/patient-ecr-eve-everywoman",
          "display": "Eve Everywoman"
        },
        "effectivePeriod": {
          "start": "2018-01-15",
          "end": "2018-01-30"
        },
        "component": [
          {
            "code": {
              "coding": [
                {
                  "system": "http://terminology.hl7.org/CodeSystem/v3-ParticipationType",
                  "code": "LOC",
                  "display": "Location"
                }
              ]
            },
            "valueCodeableConcept": {
              "coding": [
                {
                  "system": "urn:iso:std:iso:3166",
                  "code": "FJI",
                  "display": "Fiji"
                }
              ]
            }
          },
          {
            "code": {
              "coding": [
                {
                  "system": "http://terminology.hl7.org/CodeSystem/v3-ParticipationType",
                  "code": "LOC",
                  "display": "Location"
                }
              ]
            },
            "valueCodeableConcept": {
              "coding": [
                {
                  "system": "urn:oid:1.0.3166.1",
                  "code": "VUT",
                  "display": "Vanuatu"
                }
              ]
            }
          }
        ]
      }
    },
    {
      "fullUrl": "Condition/condition-eicr-eve-everywoman-common-cold",
      "resource": {
        "resourceType": "Condition",
        "id": "condition-eicr-eve-everywoman-common-cold",
        "meta": {
          "versionId": "15",
          "lastUpdated": "2019-10-10T21:21:49.000-04:00",
          "profile": [
            "http://hl7.org/fhir/us/ecr/StructureDefinition/eicr-condition"
          ]
        },
        "text": {
          "status": "generated",
          "div": "<div xmlns=\"http://www.w3.org/1999/xhtml\" lang=\"en-US\">\n            <table xmlns:xsl=\"http://www.w3.org/1999/XSL/Transform\">\n              <tr>\n                <td style=\"font-weight: bold\">id</td>\n                <td>\n                  <div title=\"id\">condition-eicr-eve-everywoman-common-cold</div>\n                </td>\n              </tr>\n              <tr>\n                <td style=\"font-weight: bold\">meta</td>\n                <td>\n                  <table>\n                    <tr>\n                      <td style=\"font-weight: bold\">versionId</td>\n                      <td>\n                        <div title=\"versionId\">15</div>\n                      </td>\n                    </tr>\n                    <tr>\n                      <td style=\"font-weight: bold\">lastUpdated</td>\n                      <td>\n                        <div title=\"lastUpdated\">2019-10-10T21:21:49.000-04:00</div>\n                      </td>\n                    </tr>\n                    <tr>\n                      <td style=\"font-weight: bold\">profile</td>\n                      <td>\n                        <div title=\"profile\">http://hl7.org/fhir/us/ecr/StructureDefinition/eicr-condition</div>\n                      </td>\n                    </tr>\n                  </table>\n                </td>\n              </tr>\n              <tr>\n                <td style=\"font-weight: bold\">category</td>\n                <td>\n                  <ul style=\"list-style:none; padding-left:0; margin:0 0;\">\n                    <li>\n                      <ul style=\"list-style:none; padding-left:0; margin:0 0;\">\n                        <li>\n                          <div title=\"display\">Problem List Item</div>  (<div title=\"code\">problem-list-item</div> )\n                        </li>\n                        <li>\n                          <div title=\"system\">\n                            <a href=\"http://terminology.hl7.org/CodeSystem/condition-category\">http://terminology.hl7.org/CodeSystem/condition-category</a>\n                          </div>\n                        </li>\n                      </ul>\n                    </li>\n                  </ul>\n                </td>\n              </tr>\n              <tr>\n                <td style=\"font-weight: bold\">code</td>\n                <td>\n                  <ul style=\"list-style:none; padding-left:0; margin:0 0;\">\n                    <li>\n                      <ul style=\"list-style:none; padding-left:0; margin:0 0;\">\n                        <li>\n                          <div title=\"display\">Common cold (disorder)</div>  (<div title=\"code\">82272006</div> )\n                        </li>\n                        <li>\n                          <div title=\"system\">\n                            <a href=\"http://snomed.info/sct\">http://snomed.info/sct</a>\n                          </div>\n                        </li>\n                      </ul>\n                    </li>\n                  </ul>\n                </td>\n              </tr>\n              <tr>\n                <td style=\"font-weight: bold\">subject</td>\n                <td>\n                  <ul style=\"list-style:none; padding-left:0; margin:0 0;\">\n                    <li/>\n                    <li>\n                      <a href=\"Patient-patient-ecr-eve-everywoman.html\">Eve Everywoman</a>\n                    </li>\n                  </ul>\n                </td>\n              </tr>\n              <tr>\n                <td style=\"font-weight: bold\">onsetDateTime</td>\n                <td>\n                  <div title=\"onsetDateTime\">2017-09-23</div>\n                </td>\n              </tr>\n              <tr>\n                <td style=\"font-weight: bold\">asserter</td>\n                <td>\n                  <ul style=\"list-style:none; padding-left:0; margin:0 0;\">\n                    <li/>\n                    <li>\n                      <a href=\"Practitioner-practitioner-us-core-henry-seven.html\">Henry Seven, MD</a>\n                    </li>\n                  </ul>\n                </td>\n              </tr>\n            </table>\n          </div>"
        },
        "category": [
          {
            "coding": [
              {
                "system": "http://terminology.hl7.org/CodeSystem/condition-category",
                "code": "problem-list-item",
                "display": "Problem List Item"
              }
            ]
          }
        ],
        "code": {
          "coding": [
            {
              "system": "http://snomed.info/sct",
              "code": "82272006",
              "display": "Common cold (disorder)"
            }
          ]
        },
        "subject": {
          "reference": "Patient/patient-ecr-eve-everywoman",
          "display": "Eve Everywoman"
        },
        "onsetDateTime": "2017-09-23",
        "asserter": {
          "reference": "Practitioner/practitioner-us-core-henry-seven",
          "display": "Henry Seven, MD"
        }
      }
    },
    {
      "fullUrl": "Observation/observation-odh-usual-work-eve-everywoman",
      "resource": {
        "resourceType": "Observation",
        "id": "observation-odh-usual-work-eve-everywoman",
        "meta": {
          "versionId": "2",
          "lastUpdated": "2019-10-20T10:53:14.000-04:00",
          "profile": [
            "http://hl7.org/fhir/us/odh/StructureDefinition/odh-UsualWork"
          ]
        },
        "text": {
          "status": "generated",
          "div": "<div xmlns=\"http://www.w3.org/1999/xhtml\" lang=\"en-US\">\n            <table xmlns:xsl=\"http://www.w3.org/1999/XSL/Transform\">\n              <tr>\n                <td style=\"font-weight: bold\">id</td>\n                <td>\n                  <div title=\"id\">observation-odh-usual-work-eve-everywoman</div>\n                </td>\n              </tr>\n              <tr>\n                <td style=\"font-weight: bold\">meta</td>\n                <td>\n                  <table>\n                    <tr>\n                      <td style=\"font-weight: bold\">versionId</td>\n                      <td>\n                        <div title=\"versionId\">2</div>\n                      </td>\n                    </tr>\n                    <tr>\n                      <td style=\"font-weight: bold\">lastUpdated</td>\n                      <td>\n                        <div title=\"lastUpdated\">2019-10-20T10:53:14.000-04:00</div>\n                      </td>\n                    </tr>\n                    <tr>\n                      <td style=\"font-weight: bold\">profile</td>\n                      <td>\n                        <div title=\"profile\">http://hl7.org/fhir/us/odh/StructureDefinition/odh-UsualWork</div>\n                      </td>\n                    </tr>\n                  </table>\n                </td>\n              </tr>\n              <tr>\n                <td style=\"font-weight: bold\">status</td>\n                <td>\n                  <div title=\"status\">final</div>\n                </td>\n              </tr>\n              <tr>\n                <td style=\"font-weight: bold\">code</td>\n                <td>\n                  <ul style=\"list-style:none; padding-left:0; margin:0 0;\">\n                    <li>\n                      <ul style=\"list-style:none; padding-left:0; margin:0 0;\">\n                        <li>\n                          <div title=\"display\">History of Usual occupation</div>  (<div title=\"code\">21843-8</div> )\n                        </li>\n                        <li>\n                          <div title=\"system\">\n                            <a href=\"http://loinc.org\">http://loinc.org</a>\n                          </div>\n                        </li>\n                      </ul>\n                    </li>\n                  </ul>\n                </td>\n              </tr>\n              <tr>\n                <td style=\"font-weight: bold\">subject</td>\n                <td>\n                  <ul style=\"list-style:none; padding-left:0; margin:0 0;\">\n                    <li/>\n                    <li>\n                      <a href=\"Patient-patient-ecr-eve-everywoman.html\">Eve Everywoman</a>\n                    </li>\n                  </ul>\n                </td>\n              </tr>\n              <tr>\n                <td style=\"font-weight: bold\">effectivePeriod</td>\n                <td>\n                  <table>\n                    <tr>\n                      <td style=\"font-weight: bold\">start</td>\n                      <td>\n                        <div title=\"start\">2015-01-01</div>\n                      </td>\n                    </tr>\n                    <tr>\n                      <td style=\"font-weight: bold\">end</td>\n                      <td>\n                        <div title=\"end\">2018-03-07</div>\n                      </td>\n                    </tr>\n                  </table>\n                </td>\n              </tr>\n              <tr>\n                <td style=\"font-weight: bold\">valueCodeableConcept</td>\n                <td>\n                  <ul style=\"list-style:none; padding-left:0; margin:0 0;\">\n                    <li>\n                      <ul style=\"list-style:none; padding-left:0; margin:0 0;\">\n                        <li>\n                          <div title=\"display\">Human Resources Managers</div>  (<div title=\"code\">0136</div> )\n                        </li>\n                        <li>\n                          <div title=\"system\"><a href=\"https://phinvads.cdc.gov/vads/ViewCodeSystem.action?id=2.16.840.1.114222.4.5.314\">https://phinvads.cdc.gov/vads/ViewCodeSystem.action?id=2.16.840.1.114222.4.5.314</a></div>\n                        </li>\n                      </ul>\n                    </li>\n                  </ul>\n                </td>\n              </tr>\n              <tr>\n                <td style=\"font-weight: bold\">component</td>\n                <td>\n                  <table>\n                    <tr>\n                      <td style=\"font-weight: bold\">code</td>\n                      <td>\n                        <ul style=\"list-style:none; padding-left:0; margin:0 0;\">\n                          <li>\n                            <ul style=\"list-style:none; padding-left:0; margin:0 0;\">\n                              <li>\n                                <div title=\"display\">History of Usual industry</div>  (<div title=\"code\">21844-6</div> )\n                              </li>\n                              <li>\n                                <div title=\"system\">\n                                  <a href=\"http://loinc.org\">http://loinc.org</a>\n                                </div>\n                              </li>\n                            </ul>\n                          </li>\n                        </ul>\n                      </td>\n                    </tr>\n                    <tr>\n                      <td style=\"font-weight: bold\">valueCodeableConcept</td>\n                      <td>\n                        <ul style=\"list-style:none; padding-left:0; margin:0 0;\">\n                          <li>\n                            <ul style=\"list-style:none; padding-left:0; margin:0 0;\">\n                              <li>\n                                <div title=\"display\">Hospitals</div>  (<div title=\"code\">8190</div> )\n                              </li>\n                              <li>\n                                <div title=\"system\"><a href=\"https://phinvads.cdc.gov/vads/ViewCodeSystem.action?id=2.16.840.1.114222.4.5.315\">https://phinvads.cdc.gov/vads/ViewCodeSystem.action?id=2.16.840.1.114222.4.5.315</a></div>\n                              </li>\n                            </ul>\n                          </li>\n                        </ul>\n                      </td>\n                    </tr>\n                  </table>\n                </td>\n              </tr>\n            </table>\n          </div>"
        },
        "status": "final",
        "code": {
          "coding": [
            {
              "system": "http://loinc.org",
              "code": "21843-8",
              "display": "History of Usual occupation"
            }
          ]
        },
        "subject": {
          "reference": "Patient/patient-ecr-eve-everywoman",
          "display": "Eve Everywoman"
        },
        "effectivePeriod": {
          "start": "2015-01-01",
          "end": "2018-03-07"
        },
        "valueCodeableConcept": {
          "coding": [
            {
              "system": "urn:oid:2.16.840.1.114222.4.5.314",
              "code": "0136",
              "display": "Human Resources Managers"
            }
          ]
        },
        "component": [
          {
            "code": {
              "coding": [
                {
                  "system": "http://loinc.org",
                  "code": "21844-6",
                  "display": "History of Usual industry"
                }
              ]
            },
            "valueCodeableConcept": {
              "coding": [
                {
                  "system": "urn:oid:2.16.840.1.114222.4.5.315",
                  "code": "8190",
                  "display": "Hospitals"
                }
              ]
            }
          }
        ]
      }
    },
    {
      "fullUrl": "Observation/observation-us-core-results-eve-everywoman-lymphocytes",
      "resource": {
        "resourceType": "Observation",
        "id": "observation-us-core-results-eve-everywoman-lymphocytes",
        "meta": {
          "versionId": "10",
          "lastUpdated": "2019-10-05T02:50:13.000-04:00",
          "profile": [
            "http://hl7.org/fhir/us/core/StructureDefinition/us-core-observation-lab"
          ]
        },
        "text": {
          "status": "generated",
          "div": "<div xmlns=\"http://www.w3.org/1999/xhtml\" lang=\"en-US\">\n            <table xmlns:xsl=\"http://www.w3.org/1999/XSL/Transform\">\n              <tr>\n                <td style=\"font-weight: bold\">id</td>\n                <td>\n                  <div title=\"id\">observation-us-core-results-eve-everywoman-lymphocytes</div>\n                </td>\n              </tr>\n              <tr>\n                <td style=\"font-weight: bold\">meta</td>\n                <td>\n                  <table>\n                    <tr>\n                      <td style=\"font-weight: bold\">versionId</td>\n                      <td>\n                        <div title=\"versionId\">10</div>\n                      </td>\n                    </tr>\n                    <tr>\n                      <td style=\"font-weight: bold\">lastUpdated</td>\n                      <td>\n                        <div title=\"lastUpdated\">2019-10-05T02:50:13.000-04:00</div>\n                      </td>\n                    </tr>\n                    <tr>\n                      <td style=\"font-weight: bold\">profile</td>\n                      <td>\n                        <div title=\"profile\">http://hl7.org/fhir/us/core/StructureDefinition/us-core-observation-lab</div>\n                      </td>\n                    </tr>\n                  </table>\n                </td>\n              </tr>\n              <tr>\n                <td style=\"font-weight: bold\">status</td>\n                <td>\n                  <div title=\"status\">final</div>\n                </td>\n              </tr>\n              <tr>\n                <td style=\"font-weight: bold\">category</td>\n                <td>\n                  <ul style=\"list-style:none; padding-left:0; margin:0 0;\">\n                    <li>\n                      <div title=\"text\">Laboratory</div>\n                    </li>\n                    <li>\n                      <ul style=\"list-style:none; padding-left:0; margin:0 0;\">\n                        <li>\n                          <div title=\"display\">Laboratory</div>  (<div title=\"code\">laboratory</div> )\n                        </li>\n                        <li>\n                          <div title=\"system\">\n                            <a href=\"http://terminology.hl7.org/CodeSystem/observation-category\">http://terminology.hl7.org/CodeSystem/observation-category</a>\n                          </div>\n                        </li>\n                      </ul>\n                    </li>\n                  </ul>\n                </td>\n              </tr>\n              <tr>\n                <td style=\"font-weight: bold\">code</td>\n                <td>\n                  <ul style=\"list-style:none; padding-left:0; margin:0 0;\">\n                    <li>\n                      <ul style=\"list-style:none; padding-left:0; margin:0 0;\">\n                        <li>\n                          <div title=\"display\">Lymphocytes [#/volume] in Blood by Automated count</div>  (<div title=\"code\">731-0</div> )\n                        </li>\n                        <li>\n                          <div title=\"system\">\n                            <a href=\"http://loinc.org\">http://loinc.org</a>\n                          </div>\n                        </li>\n                      </ul>\n                    </li>\n                  </ul>\n                </td>\n              </tr>\n              <tr>\n                <td style=\"font-weight: bold\">subject</td>\n                <td>\n                  <ul style=\"list-style:none; padding-left:0; margin:0 0;\">\n                    <li/>\n                    <li>\n                      <a href=\"Patient-patient-ecr-eve-everywoman.html\">Eve Everywoman</a>\n                    </li>\n                  </ul>\n                </td>\n              </tr>\n              <tr>\n                <td style=\"font-weight: bold\">effectiveDateTime</td>\n                <td>\n                  <div title=\"effectiveDateTime\">2018-03-07</div>\n                </td>\n              </tr>\n              <tr>\n                <td style=\"font-weight: bold\">valueQuantity</td>\n                <td>\n                  <ul style=\"list-style:none; padding-left:0; margin:0 0;\">\n                    <li>\n                      <div title=\"value\">5.2</div>\n                    </li>\n                    <li>\n                      <div title=\"system\">\n                        <a href=\"http://unitsofmeasure.org\">http://unitsofmeasure.org</a>\n                      </div>\n                    </li>\n                    <li>\n                      <div title=\"code\">10*3/uL</div>\n                    </li>\n                  </ul>\n                </td>\n              </tr>\n              <tr>\n                <td style=\"font-weight: bold\">interpretation</td>\n                <td>\n                  <ul style=\"list-style:none; padding-left:0; margin:0 0;\">\n                    <li>\n                      <ul style=\"list-style:none; padding-left:0; margin:0 0;\">\n                        <li>\n                          <div title=\"display\">High</div>  (<div title=\"code\">H</div> )\n                        </li>\n                        <li>\n                          <div title=\"system\">\n                            <a href=\"http://terminology.hl7.org/CodeSystem/v2-0078\">http://terminology.hl7.org/CodeSystem/v2-0078</a>\n                          </div>\n                        </li>\n                      </ul>\n                    </li>\n                  </ul>\n                </td>\n              </tr>\n              <tr>\n                <td style=\"font-weight: bold\">referenceRange</td>\n                <td>\n                  <table>\n                    <tr>\n                      <td style=\"font-weight: bold\">low</td>\n                      <td>\n                        <table>\n                          <tr>\n                            <td style=\"font-weight: bold\">value</td>\n                            <td>\n                              <div title=\"value\">1</div>\n                            </td>\n                          </tr>\n                          <tr>\n                            <td style=\"font-weight: bold\">system</td>\n                            <td>\n                              <div title=\"system\">\n                                <a href=\"http://unitsofmeasure.org\">http://unitsofmeasure.org</a>\n                              </div>\n                            </td>\n                          </tr>\n                          <tr>\n                            <td style=\"font-weight: bold\">code</td>\n                            <td>\n                              <div title=\"code\">10*3/uL</div>\n                            </td>\n                          </tr>\n                        </table>\n                      </td>\n                    </tr>\n                    <tr>\n                      <td style=\"font-weight: bold\">high</td>\n                      <td>\n                        <table>\n                          <tr>\n                            <td style=\"font-weight: bold\">value</td>\n                            <td>\n                              <div title=\"value\">4.8</div>\n                            </td>\n                          </tr>\n                          <tr>\n                            <td style=\"font-weight: bold\">system</td>\n                            <td>\n                              <div title=\"system\">\n                                <a href=\"http://unitsofmeasure.org\">http://unitsofmeasure.org</a>\n                              </div>\n                            </td>\n                          </tr>\n                          <tr>\n                            <td style=\"font-weight: bold\">code</td>\n                            <td>\n                              <div title=\"code\">10*3/uL</div>\n                            </td>\n                          </tr>\n                        </table>\n                      </td>\n                    </tr>\n                  </table>\n                </td>\n              </tr>\n            </table>\n          </div>"
        },
        "status": "final",
        "category": [
          {
            "coding": [
              {
                "system": "http://terminology.hl7.org/CodeSystem/observation-category",
                "code": "laboratory",
                "display": "Laboratory"
              }
            ],
            "text": "Laboratory"
          }
        ],
        "code": {
          "coding": [
            {
              "system": "http://loinc.org",
              "code": "731-0",
              "display": "Lymphocytes [#/volume] in Blood by Automated count"
            }
          ]
        },
        "subject": {
          "reference": "Patient/patient-ecr-eve-everywoman",
          "display": "Eve Everywoman"
        },
        "effectiveDateTime": "2018-03-07",
        "valueQuantity": {
          "value": 5.2,
          "system": "http://unitsofmeasure.org",
          "code": "10*3/uL"
        },
        "interpretation": [
          {
            "coding": [
              {
                "system": "http://terminology.hl7.org/CodeSystem/v2-0078",
                "code": "H",
                "display": "High"
              }
            ]
          }
        ],
        "referenceRange": [
          {
            "low": {
              "value": 1,
              "system": "http://unitsofmeasure.org",
              "code": "10*3/uL"
            },
            "high": {
              "value": 4.8,
              "system": "http://unitsofmeasure.org",
              "code": "10*3/uL"
            }
          }
        ]
      }
    },
    {
      "fullUrl": "Patient/patient-ecr-eve-everywoman",
      "resource": {
        "resourceType": "Patient",
        "id": "patient-ecr-eve-everywoman",
        "meta": {
          "versionId": "13",
          "lastUpdated": "2019-10-11T03:45:24.000-04:00",
          "profile": [
            "http://hl7.org/fhir/us/ecr/StructureDefinition/ecr-patient"
          ]
        },
        "text": {
          "status": "generated",
          "div": "<div xmlns=\"http://www.w3.org/1999/xhtml\" lang=\"en-US\">\n            <table xmlns:xsl=\"http://www.w3.org/1999/XSL/Transform\">\n              <tr>\n                <td style=\"font-weight: bold\">id</td>\n                <td>\n                  <div title=\"id\">patient-ecr-eve-everywoman</div>\n                </td>\n              </tr>\n              <tr>\n                <td style=\"font-weight: bold\">meta</td>\n                <td>\n                  <table>\n                    <tr>\n                      <td style=\"font-weight: bold\">versionId</td>\n                      <td>\n                        <div title=\"versionId\">13</div>\n                      </td>\n                    </tr>\n                    <tr>\n                      <td style=\"font-weight: bold\">lastUpdated</td>\n                      <td>\n                        <div title=\"lastUpdated\">2019-10-11T03:45:24.000-04:00</div>\n                      </td>\n                    </tr>\n                    <tr>\n                      <td style=\"font-weight: bold\">profile</td>\n                      <td>\n                        <div title=\"profile\">http://hl7.org/fhir/us/ecr/StructureDefinition/ecr-patient</div>\n                      </td>\n                    </tr>\n                  </table>\n                </td>\n              </tr>\n              <tr>\n                <td style=\"font-weight: bold\">us-core-race</td>\n                <td>\n                  <ul style=\"list-style:none; padding-left:0; margin:0 0;\">\n                    <li>\n                      <div title=\"display\">White</div>\n                    </li>\n                    <li>\n                      <div title=\"system\">urn:oid:2.16.840.1.113883.6.238</div>\n                    </li>\n                    <li>\n                      <div title=\"code\">2106-3</div>\n                    </li>\n                    <li>\n                      <div title=\"valueString\">White</div>\n                    </li>\n                  </ul>\n                </td>\n              </tr>\n              <tr>\n                <td style=\"font-weight: bold\">us-core-ethnicity</td>\n                <td>\n                  <ul style=\"list-style:none; padding-left:0; margin:0 0;\">\n                    <li>\n                      <div title=\"display\">Not Hispanic or Latino</div>\n                    </li>\n                    <li>\n                      <div title=\"system\">urn:oid:2.16.840.1.113883.6.238</div>\n                    </li>\n                    <li>\n                      <div title=\"code\">2186-5</div>\n                    </li>\n                    <li>\n                      <div title=\"valueString\">Not Hispanic or Latino</div>\n                    </li>\n                  </ul>\n                </td>\n              </tr>\n              <tr>\n                <td style=\"font-weight: bold\">us-core-birthsex</td>\n                <td>\n                  <ul style=\"list-style:none; padding-left:0; margin:0 0;\">\n                    <li>\n                      <div title=\"valueCode\">F</div>\n                    </li>\n                  </ul>\n                </td>\n              </tr>\n              <tr>\n                <td style=\"font-weight: bold\">patient-genderIdentity</td>\n                <td>\n                  <ul style=\"list-style:none; padding-left:0; margin:0 0;\">\n                    <li>\n                      <ul style=\"list-style:none; padding-left:0; margin:0 0;\">\n                        <li>\n                          <div title=\"display\">female</div>  (<div title=\"code\">female</div> )\n          </li>\n                        <li>\n                          <div title=\"system\">\n                            <a href=\"http://hl7.org/fhir/gender-identity\">http://hl7.org/fhir/gender-identity</a>\n                          </div>\n                        </li>\n                      </ul>\n                    </li>\n                  </ul>\n                </td>\n              </tr>\n              <tr>\n                <td style=\"font-weight: bold\">identifier</td>\n                <td>\n                  <ul style=\"list-style:none; padding-left:0; margin:0 0;\">\n                    <li>\n                      <div title=\"use\">usual</div>\n                    </li>\n                    <li>\n                      <ul style=\"list-style:none; padding-left:0; margin:0 0;\">\n                        <li>\n                          <div title=\"display\">Medical Record Number</div>  (<div title=\"code\">MR</div> )\n          </li>\n                        <li>\n                          <div title=\"system\">\n                            <a href=\"http://terminology.hl7.org/CodeSystem/v2-0203\">http://terminology.hl7.org/CodeSystem/v2-0203</a>\n                          </div>\n                        </li>\n                      </ul>\n                    </li>\n                    <li>\n                      <div title=\"system\">\n                        <a href=\"http://hospital.smarthealthit.org\">http://hospital.smarthealthit.org</a>\n                      </div>\n                    </li>\n                    <li>\n                      <div title=\"value\">1032702</div>\n                    </li>\n                  </ul>\n                </td>\n              </tr>\n              <tr>\n                <td style=\"font-weight: bold\">active</td>\n                <td>\n                  <div title=\"active\">true</div>\n                </td>\n              </tr>\n              <tr>\n                <td style=\"font-weight: bold\">name</td>\n                <td>\n                  <table>\n                    <tr>\n                      <td style=\"font-weight: bold\">family</td>\n                      <td>\n                        <div title=\"family\">Everywoman</div>\n                      </td>\n                    </tr>\n                    <tr>\n                      <td style=\"font-weight: bold\">given</td>\n                      <td>\n                        <div title=\"given\">Eve</div>\n                      </td>\n                    </tr>\n                    <tr>\n                      <td style=\"font-weight: bold\">given</td>\n                      <td>\n                        <div title=\"given\">L</div>\n                      </td>\n                    </tr>\n                  </table>\n                </td>\n              </tr>\n              <tr>\n                <td style=\"font-weight: bold\">telecom</td>\n                <td>\n                  <table>\n                    <tr>\n                      <td style=\"font-weight: bold\">system</td>\n                      <td>\n                        <div title=\"system\">phone</div>\n                      </td>\n                    </tr>\n                    <tr>\n                      <td style=\"font-weight: bold\">value</td>\n                      <td>\n                        <div title=\"value\">1-(404)555-1212</div>\n                      </td>\n                    </tr>\n                    <tr>\n                      <td style=\"font-weight: bold\">use</td>\n                      <td>\n                        <div title=\"use\">home</div>\n                      </td>\n                    </tr>\n                  </table>\n                </td>\n              </tr>\n              <tr>\n                <td style=\"font-weight: bold\">telecom</td>\n                <td>\n                  <table>\n                    <tr>\n                      <td style=\"font-weight: bold\">system</td>\n                      <td>\n                        <div title=\"system\">email</div>\n                      </td>\n                    </tr>\n                    <tr>\n                      <td style=\"font-weight: bold\">value</td>\n                      <td>\n                        <div title=\"value\">eve.everywoman@example.com</div>\n                      </td>\n                    </tr>\n                  </table>\n                </td>\n              </tr>\n              <tr>\n                <td style=\"font-weight: bold\">gender</td>\n                <td>\n                  <div title=\"gender\">female</div>\n                </td>\n              </tr>\n              <tr>\n                <td style=\"font-weight: bold\">birthDate</td>\n                <td>\n                  <div title=\"birthDate\">1974-11-24</div>\n                </td>\n              </tr>\n              <tr>\n                <td style=\"font-weight: bold\">address</td>\n                <td>\n                  <table>\n                    <tr>\n                      <td style=\"font-weight: bold\">line</td>\n                      <td>\n                        <div title=\"line\">5101 Peachtree St NE</div>\n                      </td>\n                    </tr>\n                    <tr>\n                      <td style=\"font-weight: bold\">city</td>\n                      <td>\n                        <div title=\"city\">Atlanta</div>\n                      </td>\n                    </tr>\n                    <tr>\n                      <td style=\"font-weight: bold\">state</td>\n                      <td>\n                        <div title=\"state\">GA</div>\n                      </td>\n                    </tr>\n                    <tr>\n                      <td style=\"font-weight: bold\">postalCode</td>\n                      <td>\n                        <div title=\"postalCode\">30302</div>\n                      </td>\n                    </tr>\n                    <tr>\n                      <td style=\"font-weight: bold\">country</td>\n                      <td>\n                        <div title=\"country\">US</div>\n                      </td>\n                    </tr>\n                  </table>\n                </td>\n              </tr>\n            </table>\n          </div>"
        },
        "extension": [
          {
            "url": "http://hl7.org/fhir/us/core/StructureDefinition/us-core-race",
            "extension": [
              {
                "url": "ombCategory",
                "valueCoding": {
                  "system": "urn:oid:2.16.840.1.113883.6.238",
                  "code": "2106-3",
                  "display": "White"
                }
              },
              {
                "url": "text",
                "valueString": "White"
              }
            ]
          },
          {
            "url": "http://hl7.org/fhir/us/core/StructureDefinition/us-core-ethnicity",
            "extension": [
              {
                "url": "ombCategory",
                "valueCoding": {
                  "system": "urn:oid:2.16.840.1.113883.6.238",
                  "code": "2186-5",
                  "display": "Not Hispanic or Latino"
                }
              },
              {
                "url": "text",
                "valueString": "Not Hispanic or Latino"
              }
            ]
          },
          {
            "url": "http://hl7.org/fhir/us/core/StructureDefinition/us-core-birthsex",
            "valueCode": "F"
          },
          {
            "url": "http://hl7.org/fhir/StructureDefinition/patient-genderIdentity",
            "valueCodeableConcept": {
              "coding": [
                {
                  "system": "http://hl7.org/fhir/gender-identity",
                  "code": "female",
                  "display": "female"
                }
              ]
            }
          }
        ],
        "identifier": [
          {
            "use": "usual",
            "type": {
              "coding": [
                {
                  "system": "http://terminology.hl7.org/CodeSystem/v2-0203",
                  "code": "MR",
                  "display": "Medical Record Number"
                }
              ]
            },
            "system": "http://hospital.smarthealthit.org",
            "value": "1032702"
          }
        ],
        "active": true,
        "name": [
          {
            "family": "Everywoman",
            "given": [
              "Eve",
              "L"
            ]
          }
        ],
        "telecom": [
          {
            "system": "phone",
            "value": "1-(404)555-1212",
            "use": "home"
          },
          {
            "system": "email",
            "value": "eve.everywoman@example.com"
          }
        ],
        "gender": "female",
        "birthDate": "1974-11-24",
        "address": [
          {
            "line": [
              "5101 Peachtree St NE"
            ],
            "city": "Atlanta",
            "state": "GA",
            "postalCode": "30302",
            "country": "US"
          }
        ]
      }
    },
    {
      "fullUrl": "PractitionerRole/practitionerrole-henry-seven",
      "resource": {
        "resourceType": "PractitionerRole",
        "id": "practitionerrole-henry-seven",
        "meta": {
          "versionId": "8",
          "lastUpdated": "2019-10-14T01:24:13.000-04:00",
          "profile": [
            "http://hl7.org/fhir/us/ecr/StructureDefinition/ecr-practitionerrole"
          ]
        },
        "text": {
          "status": "generated",
          "div": "<div xmlns=\"http://www.w3.org/1999/xhtml\" lang=\"en-US\">\n            <table xmlns:xsl=\"http://www.w3.org/1999/XSL/Transform\">\n              <tr>\n                <td style=\"font-weight: bold\">id</td>\n                <td>\n                  <div title=\"id\">practitionerrole-henry-seven</div>\n                </td>\n              </tr>\n              <tr>\n                <td style=\"font-weight: bold\">meta</td>\n                <td>\n                  <table>\n                    <tr>\n                      <td style=\"font-weight: bold\">versionId</td>\n                      <td>\n                        <div title=\"versionId\">8</div>\n                      </td>\n                    </tr>\n                    <tr>\n                      <td style=\"font-weight: bold\">lastUpdated</td>\n                      <td>\n                        <div title=\"lastUpdated\">2019-10-14T01:24:13.000-04:00</div>\n                      </td>\n                    </tr>\n                    <tr>\n                      <td style=\"font-weight: bold\">profile</td>\n                      <td>\n                        <div title=\"profile\">http://hl7.org/fhir/us/ecr/StructureDefinition/ecr-practitionerrole</div>\n                      </td>\n                    </tr>\n                  </table>\n                </td>\n              </tr>\n              <tr>\n                <td style=\"font-weight: bold\">identifier</td>\n                <td>\n                  <ul style=\"list-style:none; padding-left:0; margin:0 0;\">\n                    <li>\n                      <div title=\"system\">\n                        <a href=\"http://hl7.org/fhir/sid/us-npi\">http://hl7.org/fhir/sid/us-npi</a>\n                      </div>\n                    </li>\n                    <li>\n                      <div title=\"value\">9941339108</div>\n                    </li>\n                  </ul>\n                </td>\n              </tr>\n              <tr>\n                <td style=\"font-weight: bold\">practitioner</td>\n                <td>\n                  <ul style=\"list-style:none; padding-left:0; margin:0 0;\">\n                    <li/>\n                    <li>\n                      <a href=\"Practitioner-practitioner-us-core-henry-seven.html\">Henry Seven, MD</a>\n                    </li>\n                  </ul>\n                </td>\n              </tr>\n              <tr>\n                <td style=\"font-weight: bold\">organization</td>\n                <td>\n                  <ul style=\"list-style:none; padding-left:0; margin:0 0;\">\n                    <li/>\n                    <li>\n                      <a href=\"Organization-organization-ecr-salem-medical-center.html\">Salem Medical Center</a>\n                    </li>\n                  </ul>\n                </td>\n              </tr>\n              <tr>\n                <td style=\"font-weight: bold\">code</td>\n                <td>\n                  <ul style=\"list-style:none; padding-left:0; margin:0 0;\">\n                    <li>\n                      <ul style=\"list-style:none; padding-left:0; margin:0 0;\">\n                        <li>\n                          <div title=\"display\">Primary Care</div>  (<div title=\"code\">261QP2300X</div> )\n                        </li>\n                        <li>\n                          <div title=\"system\">\n                            <a href=\"http://nucc.org/provider-taxonomy\">http://nucc.org/provider-taxonomy</a>\n                          </div>\n                        </li>\n                      </ul>\n                    </li>\n                  </ul>\n                </td>\n              </tr>\n              <tr>\n                <td style=\"font-weight: bold\">specialty</td>\n                <td>\n                  <ul style=\"list-style:none; padding-left:0; margin:0 0;\">\n                    <li>\n                      <ul style=\"list-style:none; padding-left:0; margin:0 0;\">\n                        <li>\n                          <div title=\"display\">Family Practice</div>  (<div title=\"code\">419772000</div> )\n                        </li>\n                        <li>\n                          <div title=\"system\">\n                            <a href=\"http://snomed.info/sct\">http://snomed.info/sct</a>\n                          </div>\n                        </li>\n                      </ul>\n                    </li>\n                  </ul>\n                </td>\n              </tr>\n              <tr>\n                <td style=\"font-weight: bold\">location</td>\n                <td>\n                  <ul style=\"list-style:none; padding-left:0; margin:0 0;\">\n                    <li/>\n                    <li>\n                      <a href=\"Location-location-ecr-salem-medical-center.html\">Salem Medical Center</a>\n                    </li>\n                  </ul>\n                </td>\n              </tr>\n              <tr>\n                <td style=\"font-weight: bold\">telecom</td>\n                <td>\n                  <table>\n                    <tr>\n                      <td style=\"font-weight: bold\">system</td>\n                      <td>\n                        <div title=\"system\">email</div>\n                      </td>\n                    </tr>\n                    <tr>\n                      <td style=\"font-weight: bold\">value</td>\n                      <td>\n                        <div title=\"value\">henry.seven@example.com</div>\n                      </td>\n                    </tr>\n                  </table>\n                </td>\n              </tr>\n            </table>\n          </div>"
        },
        "identifier": [
          {
            "system": "http://hl7.org/fhir/sid/us-npi",
            "value": "9941339108"
          }
        ],
        "practitioner": {
          "reference": "Practitioner/practitioner-us-core-henry-seven",
          "display": "Henry Seven, MD"
        },
        "organization": {
          "reference": "Organization/organization-ecr-salem-medical-center",
          "display": "Salem Medical Center"
        },
        "code": [
          {
            "coding": [
              {
                "system": "http://nucc.org/provider-taxonomy",
                "code": "261QP2300X",
                "display": "Primary Care"
              }
            ]
          }
        ],
        "specialty": [
          {
            "coding": [
              {
                "system": "http://snomed.info/sct",
                "code": "419772000",
                "display": "Family Practice"
              }
            ]
          }
        ],
        "location": [
          {
            "reference": "Location/location-ecr-salem-medical-center",
            "display": "Salem Medical Center"
          }
        ],
        "telecom": [
          {
            "system": "email",
            "value": "henry.seven@example.com"
          }
        ]
      }
    },
    {
      "fullUrl": "Practitioner/practitioner-us-core-henry-seven",
      "resource": {
        "resourceType": "Practitioner",
        "id": "practitioner-us-core-henry-seven",
        "meta": {
          "versionId": "8",
          "lastUpdated": "2019-10-14T01:24:13.000-04:00",
          "profile": [
            "http://hl7.org/fhir/us/core/StructureDefinition/us-core-practitioner"
          ]
        },
        "text": {
          "status": "generated",
          "div": "<div xmlns=\"http://www.w3.org/1999/xhtml\" lang=\"en-US\">\n            <table xmlns:xsl=\"http://www.w3.org/1999/XSL/Transform\">\n              <tr>\n                <td style=\"font-weight: bold\">id</td>\n                <td>\n                  <div title=\"id\">practitioner-us-core-henry-seven</div>\n                </td>\n              </tr>\n              <tr>\n                <td style=\"font-weight: bold\">meta</td>\n                <td>\n                  <table>\n                    <tr>\n                      <td style=\"font-weight: bold\">versionId</td>\n                      <td>\n                        <div title=\"versionId\">8</div>\n                      </td>\n                    </tr>\n                    <tr>\n                      <td style=\"font-weight: bold\">lastUpdated</td>\n                      <td>\n                        <div title=\"lastUpdated\">2019-10-14T01:24:13.000-04:00</div>\n                      </td>\n                    </tr>\n                    <tr>\n                      <td style=\"font-weight: bold\">profile</td>\n                      <td>\n                        <div title=\"profile\">http://hl7.org/fhir/us/core/StructureDefinition/us-core-practitioner</div>\n                      </td>\n                    </tr>\n                  </table>\n                </td>\n              </tr>\n              <tr>\n                <td style=\"font-weight: bold\">identifier</td>\n                <td>\n                  <ul style=\"list-style:none; padding-left:0; margin:0 0;\">\n                    <li>\n                      <div title=\"system\">\n                        <a href=\"http://hl7.org/fhir/sid/us-npi\">http://hl7.org/fhir/sid/us-npi</a>\n                      </div>\n                    </li>\n                    <li>\n                      <div title=\"value\">9941339108</div>\n                    </li>\n                  </ul>\n                </td>\n              </tr>\n              <tr>\n                <td style=\"font-weight: bold\">name</td>\n                <td>\n                  <table>\n                    <tr>\n                      <td style=\"font-weight: bold\">family</td>\n                      <td>\n                        <div title=\"family\">Henry</div>\n                      </td>\n                    </tr>\n                    <tr>\n                      <td style=\"font-weight: bold\">given</td>\n                      <td>\n                        <div title=\"given\">Seven</div>\n                      </td>\n                    </tr>\n                    <tr>\n                      <td style=\"font-weight: bold\">suffix</td>\n                      <td>\n                        <div title=\"suffix\">M.D.</div>\n                      </td>\n                    </tr>\n                  </table>\n                </td>\n              </tr>\n              <tr>\n                <td style=\"font-weight: bold\">telecom</td>\n                <td>\n                  <table>\n                    <tr>\n                      <td style=\"font-weight: bold\">system</td>\n                      <td>\n                        <div title=\"system\">email</div>\n                      </td>\n                    </tr>\n                    <tr>\n                      <td style=\"font-weight: bold\">value</td>\n                      <td>\n                        <div title=\"value\">henry.seven@example.com</div>\n                      </td>\n                    </tr>\n                  </table>\n                </td>\n              </tr>\n              <tr>\n                <td style=\"font-weight: bold\">address</td>\n                <td>\n                  <table>\n                    <tr>\n                      <td style=\"font-weight: bold\">line</td>\n                      <td>\n                        <div title=\"line\">BMass Doctors</div>\n                      </td>\n                    </tr>\n                    <tr>\n                      <td style=\"font-weight: bold\">line</td>\n                      <td>\n                        <div title=\"line\">2100 North Ave</div>\n                      </td>\n                    </tr>\n                    <tr>\n                      <td style=\"font-weight: bold\">city</td>\n                      <td>\n                        <div title=\"city\">Burlington</div>\n                      </td>\n                    </tr>\n                    <tr>\n                      <td style=\"font-weight: bold\">state</td>\n                      <td>\n                        <div title=\"state\">MA</div>\n                      </td>\n                    </tr>\n                    <tr>\n                      <td style=\"font-weight: bold\">postalCode</td>\n                      <td>\n                        <div title=\"postalCode\">02368</div>\n                      </td>\n                    </tr>\n                    <tr>\n                      <td style=\"font-weight: bold\">country</td>\n                      <td>\n                        <div title=\"country\">US</div>\n                      </td>\n                    </tr>\n                  </table>\n                </td>\n              </tr>\n            </table>\n          </div>"
        },
        "identifier": [
          {
            "system": "http://hl7.org/fhir/sid/us-npi",
            "value": "9941339108"
          }
        ],
        "name": [
          {
            "family": "Henry",
            "given": [
              "Seven"
            ],
            "suffix": [
              "M.D."
            ]
          }
        ],
        "telecom": [
          {
            "system": "email",
            "value": "henry.seven@example.com"
          }
        ],
        "address": [
          {
            "line": [
              "BMass Doctors",
              "2100 North Ave"
            ],
            "city": "Burlington",
            "state": "MA",
            "postalCode": "02368",
            "country": "US"
          }
        ]
      }
    },
    {
      "fullUrl": "ServiceRequest/servicerequest-eicr-zika",
      "resource": {
        "resourceType": "ServiceRequest",
        "id": "servicerequest-eicr-zika",
        "meta": {
          "versionId": "9",
          "lastUpdated": "2019-10-23T13:56:36.000-04:00",
          "profile": [
            "http://hl7.org/fhir/us/ecr/StructureDefinition/eicr-servicerequest"
          ]
        },
        "text": {
          "status": "generated",
          "div": "<div xmlns=\"http://www.w3.org/1999/xhtml\" lang=\"en-US\">\n            <table xmlns:xsl=\"http://www.w3.org/1999/XSL/Transform\">\n              <tr>\n                <td style=\"font-weight: bold\">id</td>\n                <td>\n                  <div title=\"id\">servicerequest-eicr-zika</div>\n                </td>\n              </tr>\n              <tr>\n                <td style=\"font-weight: bold\">meta</td>\n                <td>\n                  <table>\n                    <tr>\n                      <td style=\"font-weight: bold\">versionId</td>\n                      <td>\n                        <div title=\"versionId\">9</div>\n                      </td>\n                    </tr>\n                    <tr>\n                      <td style=\"font-weight: bold\">lastUpdated</td>\n                      <td>\n                        <div title=\"lastUpdated\">2019-10-23T13:56:36.000-04:00</div>\n                      </td>\n                    </tr>\n                    <tr>\n                      <td style=\"font-weight: bold\">profile</td>\n                      <td>\n                        <div title=\"profile\">http://hl7.org/fhir/us/ecr/StructureDefinition/eicr-servicerequest</div>\n                      </td>\n                    </tr>\n                  </table>\n                </td>\n              </tr>\n              <tr>\n                <td style=\"font-weight: bold\">status</td>\n                <td>\n                  <div title=\"status\">completed</div>\n                </td>\n              </tr>\n              <tr>\n                <td style=\"font-weight: bold\">intent</td>\n                <td>\n                  <div title=\"intent\">order</div>\n                </td>\n              </tr>\n              <tr>\n                <td style=\"font-weight: bold\">category</td>\n                <td>\n                  <ul style=\"list-style:none; padding-left:0; margin:0 0;\">\n                    <li>\n                      <div title=\"text\">Diagnostics Procedure</div>\n                    </li>\n                    <li>\n                      <ul style=\"list-style:none; padding-left:0; margin:0 0;\">\n                        <li>\n                          <div title=\"display\">Diagnostic procedure (procedure)</div>  (<div title=\"code\">103693007</div> )\n                        </li>\n                        <li>\n                          <div title=\"system\">\n                            <a href=\"http://snomed.info/sct\">http://snomed.info/sct</a>\n                          </div>\n                        </li>\n                      </ul>\n                    </li>\n                  </ul>\n                </td>\n              </tr>\n              <tr>\n                <td style=\"font-weight: bold\">code</td>\n                <td>\n                  <ul style=\"list-style:none; padding-left:0; margin:0 0;\">\n                    <li>\n                      <div title=\"text\">Zika RT-PCR</div>\n                    </li>\n                    <li>\n                      <ul style=\"list-style:none; padding-left:0; margin:0 0;\">\n                        <li>\n                          <div title=\"display\">Zika virus envelope E gene [Presence] in Serum by NAA with probe detection</div>  (<div title=\"code\">80825-3</div> )\n                        </li>\n                        <li>\n                          <div title=\"system\">\n                            <a href=\"http://loinc.org\">http://loinc.org</a>\n                          </div>\n                        </li>\n                      </ul>\n                    </li>\n                  </ul>\n                </td>\n              </tr>\n              <tr>\n                <td style=\"font-weight: bold\">subject</td>\n                <td>\n                  <ul style=\"list-style:none; padding-left:0; margin:0 0;\">\n                    <li/>\n                    <li>\n                      <a href=\"Patient-patient-ecr-eve-everywoman.html\">Eve Everywoman</a>\n                    </li>\n                  </ul>\n                </td>\n              </tr>\n              <tr>\n                <td style=\"font-weight: bold\">performer</td>\n                <td>\n                  <ul style=\"list-style:none; padding-left:0; margin:0 0;\">\n                    <li/>\n                    <li>\n                      <a href=\"Organization-organization-ecr-acme-laboratory.html\">Acme Labs</a>\n                    </li>\n                  </ul>\n                </td>\n              </tr>\n            </table>\n          </div>"
        },
        "status": "completed",
        "intent": "order",
        "category": [
          {
            "coding": [
              {
                "system": "http://snomed.info/sct",
                "code": "103693007",
                "display": "Diagnostic procedure (procedure)"
              }
            ],
            "text": "Diagnostics Procedure"
          }
        ],
        "code": {
          "coding": [
            {
              "system": "http://loinc.org",
              "code": "80825-3",
              "display": "Zika virus envelope E gene [Presence] in Serum by NAA with probe detection"
            }
          ],
          "text": "Zika RT-PCR"
        },
        "subject": {
          "reference": "Patient/patient-ecr-eve-everywoman",
          "display": "Eve Everywoman"
        },
        "performer": [
          {
            "reference": "Organization/organization-ecr-acme-laboratory",
            "display": "Acme Labs"
          }
        ]
      }
    },
    {
      "fullUrl": "Condition/condition-eicr-eve-everywoman-zika",
      "resource": {
        "resourceType": "Condition",
        "id": "condition-eicr-eve-everywoman-zika",
        "meta": {
          "versionId": "1",
          "lastUpdated": "2019-10-10T21:21:49.000-04:00"
        },
        "text": {
          "status": "generated",
          "div": "<div xmlns=\"http://www.w3.org/1999/xhtml\" lang=\"en-US\">\n            <table xmlns:xsl=\"http://www.w3.org/1999/XSL/Transform\">\n              <tr>\n                <td style=\"font-weight: bold\">id</td>\n                <td>\n                  <div title=\"id\">condition-eicr-eve-everywoman-zika</div>\n                </td>\n              </tr>\n              <tr>\n                <td style=\"font-weight: bold\">meta</td>\n                <td>\n                  <table>\n                    <tr>\n                      <td style=\"font-weight: bold\">versionId</td>\n                      <td>\n                        <div title=\"versionId\">1</div>\n                      </td>\n                    </tr>\n                    <tr>\n                      <td style=\"font-weight: bold\">lastUpdated</td>\n                      <td>\n                        <div title=\"lastUpdated\">2019-10-10T21:21:49.000-04:00</div>\n                      </td>\n                    </tr>\n                  </table>\n                </td>\n              </tr>\n              <tr>\n                <td style=\"font-weight: bold\">category</td>\n                <td>\n                  <ul style=\"list-style:none; padding-left:0; margin:0 0;\">\n                    <li>\n                      <ul style=\"list-style:none; padding-left:0; margin:0 0;\">\n                        <li>\n                          <div title=\"display\">Encounter Diagnosis</div>  (<div title=\"code\">encounter-diagnosis</div> )\n                        </li>\n                        <li>\n                          <div title=\"system\">\n                            <a href=\"http://terminology.hl7.org/CodeSystem/condition-category\">http://terminology.hl7.org/CodeSystem/condition-category</a>\n                          </div>\n                        </li>\n                      </ul>\n                    </li>\n                  </ul>\n                </td>\n              </tr>\n              <tr>\n                <td style=\"font-weight: bold\">code</td>\n                <td>\n                  <ul style=\"list-style:none; padding-left:0; margin:0 0;\">\n                    <li>\n                      <ul style=\"list-style:none; padding-left:0; margin:0 0;\">\n                        <li>\n                          <div title=\"display\">Zika virus disease (disorder)</div>  (<div title=\"code\">3928002</div> )\n                        </li>\n                        <li>\n                          <div title=\"system\">\n                            <a href=\"http://snomed.info/sct\">http://snomed.info/sct</a>\n                          </div>\n                        </li>\n                      </ul>\n                    </li>\n                  </ul>\n                </td>\n              </tr>\n              <tr>\n                <td style=\"font-weight: bold\">subject</td>\n                <td>\n                  <ul style=\"list-style:none; padding-left:0; margin:0 0;\">\n                    <li/>\n                    <li>\n                      <a href=\"Patient-patient-ecr-eve-everywoman.html\">Eve Everywoman</a>\n                    </li>\n                  </ul>\n                </td>\n              </tr>\n              <tr>\n                <td style=\"font-weight: bold\">onsetDateTime</td>\n                <td>\n                  <div title=\"onsetDateTime\">2017-08-23</div>\n                </td>\n              </tr>\n              <tr>\n                <td style=\"font-weight: bold\">asserter</td>\n                <td>\n                  <ul style=\"list-style:none; padding-left:0; margin:0 0;\">\n                    <li/>\n                    <li>\n                      <a href=\"Practitioner-practitioner-us-core-henry-seven.html\">Henry Seven, MD</a>\n                    </li>\n                  </ul>\n                </td>\n              </tr>\n            </table>\n          </div>"
        },
        "category": [
          {
            "coding": [
              {
                "system": "http://terminology.hl7.org/CodeSystem/condition-category",
                "code": "encounter-diagnosis",
                "display": "Encounter Diagnosis"
              }
            ]
          }
        ],
        "code": {
          "coding": [
            {
              "system": "http://snomed.info/sct",
              "code": "3928002",
              "display": "Zika virus disease (disorder)"
            }
          ]
        },
        "subject": {
          "reference": "Patient/patient-ecr-eve-everywoman",
          "display": "Eve Everywoman"
        },
        "onsetDateTime": "2017-08-23",
        "asserter": {
          "reference": "Practitioner/practitioner-us-core-henry-seven",
          "display": "Henry Seven, MD"
        }
      }
    },
    {
      "fullUrl": "Encounter/encounter-eicr-eve-everywoman-outpatient",
      "resource": {
        "resourceType": "Encounter",
        "id": "encounter-eicr-eve-everywoman-outpatient",
        "meta": {
          "versionId": "3",
          "lastUpdated": "2019-10-11T22:32:46.000-04:00",
          "profile": [
            "http://hl7.org/fhir/us/ecr/StructureDefinition/eicr-encounter"
          ]
        },
        "text": {
          "status": "generated",
          "div": "<div xmlns=\"http://www.w3.org/1999/xhtml\" lang=\"en-US\">\n            <table xmlns:xsl=\"http://www.w3.org/1999/XSL/Transform\">\n              <tr>\n                <td style=\"font-weight: bold\">id</td>\n                <td>\n                  <div title=\"id\">encounter-eicr-eve-everywoman-outpatient</div>\n                </td>\n              </tr>\n              <tr>\n                <td style=\"font-weight: bold\">meta</td>\n                <td>\n                  <table>\n                    <tr>\n                      <td style=\"font-weight: bold\">versionId</td>\n                      <td>\n                        <div title=\"versionId\">3</div>\n                      </td>\n                    </tr>\n                    <tr>\n                      <td style=\"font-weight: bold\">lastUpdated</td>\n                      <td>\n                        <div title=\"lastUpdated\">2019-10-11T22:32:46.000-04:00</div>\n                      </td>\n                    </tr>\n                    <tr>\n                      <td style=\"font-weight: bold\">profile</td>\n                      <td>\n                        <div title=\"profile\">http://hl7.org/fhir/us/ecr/StructureDefinition/eicr-encounter</div>\n                      </td>\n                    </tr>\n                  </table>\n                </td>\n              </tr>\n              <tr>\n                <td style=\"font-weight: bold\">identifier</td>\n                <td>\n                  <ul style=\"list-style:none; padding-left:0; margin:0 0;\">\n                    <li>\n                      <div title=\"system\">\n                        <a href=\"http://hospital.smarthealthit.org\">http://hospital.smarthealthit.org</a>\n                      </div>\n                    </li>\n                    <li>\n                      <div title=\"value\">9937012</div>\n                    </li>\n                  </ul>\n                </td>\n              </tr>\n              <tr>\n                <td style=\"font-weight: bold\">status</td>\n                <td>\n                  <div title=\"status\">finished</div>\n                </td>\n              </tr>\n              <tr>\n                <td style=\"font-weight: bold\">class</td>\n                <td>\n                  <ul style=\"list-style:none; padding-left:0; margin:0 0;\">\n                    <li>\n                      <div title=\"display\">ambulatory</div>\n                    </li>\n                    <li>\n                      <div title=\"system\">\n                        <a href=\"http://terminology.hl7.org/CodeSystem/v3-ActCode\">http://terminology.hl7.org/CodeSystem/v3-ActCode</a>\n                      </div>\n                    </li>\n                    <li>\n                      <div title=\"code\">AMB</div>\n                    </li>\n                  </ul>\n                </td>\n              </tr>\n              <tr>\n                <td style=\"font-weight: bold\">type</td>\n                <td>\n                  <ul style=\"list-style:none; padding-left:0; margin:0 0;\">\n                    <li>\n                      <div title=\"text\">Office Visit</div>\n                    </li>\n                    <li>\n                      <ul style=\"list-style:none; padding-left:0; margin:0 0;\">\n                        <li> (<div title=\"code\">99201</div> )\n                        </li>\n                        <li>\n                          <div title=\"system\">\n                            <a href=\"http://www.ama-assn.org/go/cpt\">http://www.ama-assn.org/go/cpt</a>\n                          </div>\n                        </li>\n                      </ul>\n                    </li>\n                  </ul>\n                </td>\n              </tr>\n              <tr>\n                <td style=\"font-weight: bold\">subject</td>\n                <td>\n                  <ul style=\"list-style:none; padding-left:0; margin:0 0;\">\n                    <li/>\n                    <li>\n                      <a href=\"Patient-patient-ecr-eve-everywoman.html\">Eve Everywoman</a>\n                    </li>\n                  </ul>\n                </td>\n              </tr>\n              <tr>\n                <td style=\"font-weight: bold\">participant</td>\n                <td>\n                  <table>\n                    <tr>\n                      <td style=\"font-weight: bold\">type</td>\n                      <td>\n                        <ul style=\"list-style:none; padding-left:0; margin:0 0;\">\n                          <li>\n                            <ul style=\"list-style:none; padding-left:0; margin:0 0;\">\n                              <li>\n                                <div title=\"display\">attender</div>  (<div title=\"code\">ATND</div> )\n                              </li>\n                              <li>\n                                <div title=\"system\">\n                                  <a href=\"http://terminology.hl7.org/CodeSystem/v3-ParticipationType\">http://terminology.hl7.org/CodeSystem/v3-ParticipationType</a>\n                                </div>\n                              </li>\n                            </ul>\n                          </li>\n                        </ul>\n                      </td>\n                    </tr>\n                    <tr>\n                      <td style=\"font-weight: bold\">individual</td>\n                      <td>\n                        <ul style=\"list-style:none; padding-left:0; margin:0 0;\">\n                          <li/>\n                          <li>\n                            <a href=\"PractitionerRole-practitionerrole-henry-seven.html\">Henry Seven, MD</a>\n                          </li>\n                        </ul>\n                      </td>\n                    </tr>\n                  </table>\n                </td>\n              </tr>\n              <tr>\n                <td style=\"font-weight: bold\">period</td>\n                <td>\n                  <table>\n                    <tr>\n                      <td style=\"font-weight: bold\">start</td>\n                      <td>\n                        <div title=\"start\">2018-04-01T10:00:00-05:00</div>\n                      </td>\n                    </tr>\n                    <tr>\n                      <td style=\"font-weight: bold\">end</td>\n                      <td>\n                        <div title=\"end\">2018-04-02T10:15:00-05:00</div>\n                      </td>\n                    </tr>\n                  </table>\n                </td>\n              </tr>\n              <tr>\n                <td style=\"font-weight: bold\">diagnosis</td>\n                <td>\n                  <ul style=\"list-style:none; padding-left:0; margin:0 0;\">\n                    <li>\n                      <b>Trigger code</b>\n                    </li>\n                    <li>Trigger Code: 3928002</li>\n                    <li>Trigger Code Display: Zika virus disease (disorder)</li>\n                    <li>Trigger Code System: http://snomed.info/sct</li>\n                    <li>Trigger Code Value Set: urn:oid:2.16.840.1.114222.4.11.7508</li>\n                    <li>Trigger Code Value Set Version: 12/12/2018</li>\n                    <li>\n                      <a href=\"Condition-condition-eicr-eve-everywoman-zika.html\">Condition/condition-eicr-eve-everywoman-zika</a>\n                    </li>\n                  </ul>\n                </td>\n              </tr>\n              <tr>\n                <td style=\"font-weight: bold\">diagnosis</td>\n                <td>\n                  <ul style=\"list-style:none; padding-left:0; margin:0 0;\">\n                    <li>\n                      <a href=\"Condition-condition-eicr-eve-everywoman-common-cold.html\">Condition/condition-eicr-eve-everywoman-common-cold</a>\n                    </li>\n                  </ul>\n                </td>\n              </tr>\n              <tr>\n                <td style=\"font-weight: bold\">location</td>\n                <td>\n                  <ul style=\"list-style:none; padding-left:0; margin:0 0;\">\n                    <li/>\n                    <li>\n                      <a href=\"Location-location-ecr-salem-medical-center.html\">Clinic Bldg A, Salem Medical Center, 4646 Brown Rd, Salem, MA 02368</a>\n                    </li>\n                  </ul>\n                </td>\n              </tr>\n              <tr>\n                <td style=\"font-weight: bold\">serviceProvider</td>\n                <td>\n                  <ul style=\"list-style:none; padding-left:0; margin:0 0;\">\n                    <li/>\n                    <li>\n                      <a href=\"Organization-organization-ecr-salem-medical-center.html\">Salem Medical Center, 22222 Health Authority Drive, Ann Arbor MI, 99999</a>\n                    </li>\n                  </ul>\n                </td>\n              </tr>\n            </table>\n          </div>"
        },
        "identifier": [
          {
            "system": "http://hospital.smarthealthit.org",
            "value": "9937012"
          }
        ],
        "status": "finished",
        "class": {
          "system": "http://terminology.hl7.org/CodeSystem/v3-ActCode",
          "code": "AMB",
          "display": "ambulatory"
        },
        "type": [
          {
            "coding": [
              {
                "system": "http://www.ama-assn.org/go/cpt",
                "code": "99201"
              }
            ],
            "text": "Office Visit"
          }
        ],
        "subject": {
          "reference": "Patient/patient-ecr-eve-everywoman",
          "display": "Eve Everywoman"
        },
        "participant": [
          {
            "type": [
              {
                "coding": [
                  {
                    "system": "http://terminology.hl7.org/CodeSystem/v3-ParticipationType",
                    "code": "ATND",
                    "display": "attender"
                  }
                ]
              }
            ],
            "individual": {
              "reference": "PractitionerRole/practitionerrole-henry-seven",
              "display": "Henry Seven, MD"
            }
          }
        ],
        "period": {
          "start": "2018-04-01T10:00:00-05:00",
          "end": "2018-04-02T10:15:00-05:00"
        },
        "diagnosis": [
          {
            "extension": [
              {
                "url": "http://hl7.org/fhir/us/ecr/StructureDefinition/eicr-trigger-code-flag-extension",
                "extension": [
                  {
                    "url": "triggerCodeValueSet",
                    "valueOid": "urn:oid:2.16.840.1.114222.4.11.7508"
                  },
                  {
                    "url": "triggerCodeValueSetVersion",
                    "valueString": "12/12/2018"
                  },
                  {
                    "url": "triggerCode",
                    "valueCoding": {
                      "system": "http://snomed.info/sct",
                      "code": "3928002",
                      "display": "Zika virus disease (disorder)"
                    }
                  }
                ]
              }
            ],
            "condition": {
              "reference": "Condition/condition-eicr-eve-everywoman-zika"
            }
          },
          {
            "condition": {
              "reference": "Condition/condition-eicr-eve-everywoman-common-cold"
            }
          }
        ],
        "location": [
          {
            "location": {
              "reference": "Location/location-ecr-salem-medical-center",
              "display": "Clinic Bldg A, Salem Medical Center, 4646 Brown Rd, Salem, MA 02368"
            }
          }
        ],
        "serviceProvider": {
          "reference": "Organization/organization-ecr-salem-medical-center",
          "display": "Salem Medical Center, 22222 Health Authority Drive, Ann Arbor MI, 99999"
        }
      }
    },
    {
      "fullUrl": "Organization/organization-ecr-acme-laboratory",
      "resource": {
        "resourceType": "Organization",
        "id": "organization-ecr-acme-laboratory",
        "meta": {
          "versionId": "11",
          "lastUpdated": "2019-10-23T16:12:36.000-04:00",
          "profile": [
            "http://hl7.org/fhir/us/ecr/StructureDefinition/ecr-organization"
          ]
        },
        "text": {
          "status": "generated",
          "div": "<div xmlns=\"http://www.w3.org/1999/xhtml\" lang=\"en-US\">\n            <table xmlns:xsl=\"http://www.w3.org/1999/XSL/Transform\">\n              <tr>\n                <td style=\"font-weight: bold\">id</td>\n                <td>\n                  <div title=\"id\">organization-ecr-acme-laboratory</div>\n                </td>\n              </tr>\n              <tr>\n                <td style=\"font-weight: bold\">meta</td>\n                <td>\n                  <table>\n                    <tr>\n                      <td style=\"font-weight: bold\">versionId</td>\n                      <td>\n                        <div title=\"versionId\">11</div>\n                      </td>\n                    </tr>\n                    <tr>\n                      <td style=\"font-weight: bold\">lastUpdated</td>\n                      <td>\n                        <div title=\"lastUpdated\">2019-10-23T16:12:36.000-04:00</div>\n                      </td>\n                    </tr>\n                    <tr>\n                      <td style=\"font-weight: bold\">profile</td>\n                      <td>\n                        <div title=\"profile\">http://hl7.org/fhir/us/ecr/StructureDefinition/ecr-organization</div>\n                      </td>\n                    </tr>\n                  </table>\n                </td>\n              </tr>\n              <tr>\n                <td style=\"font-weight: bold\">identifier</td>\n                <td>\n                  <ul style=\"list-style:none; padding-left:0; margin:0 0;\">\n                    <li>\n                      <div title=\"system\">\n                        <a href=\"http://hl7.org.fhir/sid/us-npi\">http://hl7.org.fhir/sid/us-npi</a>\n                      </div>\n                    </li>\n                    <li>\n                      <div title=\"value\">1144221999</div>\n                    </li>\n                  </ul>\n                </td>\n              </tr>\n              <tr>\n                <td style=\"font-weight: bold\">active</td>\n                <td>\n                  <div title=\"active\">true</div>\n                </td>\n              </tr>\n              <tr>\n                <td style=\"font-weight: bold\">type</td>\n                <td>\n                  <ul style=\"list-style:none; padding-left:0; margin:0 0;\">\n                    <li>\n                      <ul style=\"list-style:none; padding-left:0; margin:0 0;\">\n                        <li>\n                          <div title=\"display\">outpatient laboratory</div>  (<div title=\"code\">OUTLAB</div> )\n                        </li>\n                        <li>\n                          <div title=\"system\">\n                            <a href=\"http://terminology.hl7.org/CodeSystem/v3-RoleCode\">http://terminology.hl7.org/CodeSystem/v3-RoleCode</a>\n                          </div>\n                        </li>\n                      </ul>\n                    </li>\n                  </ul>\n                </td>\n              </tr>\n              <tr>\n                <td style=\"font-weight: bold\">name</td>\n                <td>\n                  <div title=\"name\">Acme_Labs</div>\n                </td>\n              </tr>\n              <tr>\n                <td style=\"font-weight: bold\">telecom</td>\n                <td>\n                  <table>\n                    <tr>\n                      <td style=\"font-weight: bold\">system</td>\n                      <td>\n                        <div title=\"system\">phone</div>\n                      </td>\n                    </tr>\n                    <tr>\n                      <td style=\"font-weight: bold\">value</td>\n                      <td>\n                        <div title=\"value\">+1-555-555-4444</div>\n                      </td>\n                    </tr>\n                  </table>\n                </td>\n              </tr>\n              <tr>\n                <td style=\"font-weight: bold\">telecom</td>\n                <td>\n                  <table>\n                    <tr>\n                      <td style=\"font-weight: bold\">system</td>\n                      <td>\n                        <div title=\"system\">email</div>\n                      </td>\n                    </tr>\n                    <tr>\n                      <td style=\"font-weight: bold\">value</td>\n                      <td>\n                        <div title=\"value\">mail@acme-labs.com</div>\n                      </td>\n                    </tr>\n                  </table>\n                </td>\n              </tr>\n              <tr>\n                <td style=\"font-weight: bold\">address</td>\n                <td>\n                  <table>\n                    <tr>\n                      <td style=\"font-weight: bold\">line</td>\n                      <td>\n                        <div title=\"line\">7777 Laboratory Drive</div>\n                      </td>\n                    </tr>\n                    <tr>\n                      <td style=\"font-weight: bold\">city</td>\n                      <td>\n                        <div title=\"city\">Ann Arbor</div>\n                      </td>\n                    </tr>\n                    <tr>\n                      <td style=\"font-weight: bold\">state</td>\n                      <td>\n                        <div title=\"state\">MI</div>\n                      </td>\n                    </tr>\n                    <tr>\n                      <td style=\"font-weight: bold\">postalCode</td>\n                      <td>\n                        <div title=\"postalCode\">99999</div>\n                      </td>\n                    </tr>\n                  </table>\n                </td>\n              </tr>\n            </table>\n          </div>"
        },
        "identifier": [
          {
            "system": "http://hl7.org.fhir/sid/us-npi",
            "value": "1144221999"
          }
        ],
        "active": true,
        "type": [
          {
            "coding": [
              {
                "system": "http://terminology.hl7.org/CodeSystem/v3-RoleCode",
                "code": "OUTLAB",
                "display": "outpatient laboratory"
              }
            ]
          }
        ],
        "name": "Acme_Labs",
        "telecom": [
          {
            "system": "phone",
            "value": "+1-555-555-4444"
          },
          {
            "system": "email",
            "value": "mail@acme-labs.com"
          }
        ],
        "address": [
          {
            "line": [
              "7777 Laboratory Drive"
            ],
            "city": "Ann Arbor",
            "state": "MI",
            "postalCode": "99999"
          }
        ]
      }
    },
    {
      "fullUrl": "Organization/organization-ecr-salem-medical-center",
      "resource": {
        "resourceType": "Organization",
        "id": "organization-ecr-salem-medical-center",
        "meta": {
          "versionId": "16",
          "lastUpdated": "2019-10-05T03:15:41.000-04:00",
          "profile": [
            "http://hl7.org/fhir/us/ecr/StructureDefinition/ecr-organization"
          ]
        },
        "text": {
          "status": "generated",
          "div": "<div xmlns=\"http://www.w3.org/1999/xhtml\" lang=\"en-US\">\n            <table xmlns:xsl=\"http://www.w3.org/1999/XSL/Transform\">\n              <tr>\n                <td style=\"font-weight: bold\">id</td>\n                <td>\n                  <div title=\"id\">organization-ecr-salem-medical-center</div>\n                </td>\n              </tr>\n              <tr>\n                <td style=\"font-weight: bold\">meta</td>\n                <td>\n                  <table>\n                    <tr>\n                      <td style=\"font-weight: bold\">versionId</td>\n                      <td>\n                        <div title=\"versionId\">16</div>\n                      </td>\n                    </tr>\n                    <tr>\n                      <td style=\"font-weight: bold\">lastUpdated</td>\n                      <td>\n                        <div title=\"lastUpdated\">2019-10-05T03:15:41.000-04:00</div>\n                      </td>\n                    </tr>\n                    <tr>\n                      <td style=\"font-weight: bold\">profile</td>\n                      <td>\n                        <div title=\"profile\">http://hl7.org/fhir/us/ecr/StructureDefinition/ecr-organization</div>\n                      </td>\n                    </tr>\n                  </table>\n                </td>\n              </tr>\n              <tr>\n                <td style=\"font-weight: bold\">identifier</td>\n                <td>\n                  <ul style=\"list-style:none; padding-left:0; margin:0 0;\">\n                    <li>\n                      <div title=\"system\">\n                        <a href=\"http://hl7.org.fhir/sid/us-npi\">http://hl7.org.fhir/sid/us-npi</a>\n                      </div>\n                    </li>\n                    <li>\n                      <div title=\"value\">55555555</div>\n                    </li>\n                  </ul>\n                </td>\n              </tr>\n              <tr>\n                <td style=\"font-weight: bold\">active</td>\n                <td>\n                  <div title=\"active\">true</div>\n                </td>\n              </tr>\n              <tr>\n                <td style=\"font-weight: bold\">type</td>\n                <td>\n                  <ul style=\"list-style:none; padding-left:0; margin:0 0;\">\n                    <li>\n                      <ul style=\"list-style:none; padding-left:0; margin:0 0;\">\n                        <li>\n                          <div title=\"display\">Outpatient facility</div>  (<div title=\"code\">OF</div> )\n                        </li>\n                        <li>\n                          <div title=\"system\">\n                            <a href=\"http://terminology.hl7.org/CodeSystem/v3-RoleCode\">http://terminology.hl7.org/CodeSystem/v3-RoleCode</a>\n                          </div>\n                        </li>\n                      </ul>\n                    </li>\n                  </ul>\n                </td>\n              </tr>\n              <tr>\n                <td style=\"font-weight: bold\">name</td>\n                <td>\n                  <div title=\"name\">Salem Medical Center</div>\n                </td>\n              </tr>\n              <tr>\n                <td style=\"font-weight: bold\">telecom</td>\n                <td>\n                  <table>\n                    <tr>\n                      <td style=\"font-weight: bold\">system</td>\n                      <td>\n                        <div title=\"system\">phone</div>\n                      </td>\n                    </tr>\n                    <tr>\n                      <td style=\"font-weight: bold\">value</td>\n                      <td>\n                        <div title=\"value\">+1-555-555-1111</div>\n                      </td>\n                    </tr>\n                  </table>\n                </td>\n              </tr>\n              <tr>\n                <td style=\"font-weight: bold\">telecom</td>\n                <td>\n                  <table>\n                    <tr>\n                      <td style=\"font-weight: bold\">system</td>\n                      <td>\n                        <div title=\"system\">email</div>\n                      </td>\n                    </tr>\n                    <tr>\n                      <td style=\"font-weight: bold\">value</td>\n                      <td>\n                        <div title=\"value\">mail@salemmedicalcenter.com</div>\n                      </td>\n                    </tr>\n                  </table>\n                </td>\n              </tr>\n              <tr>\n                <td style=\"font-weight: bold\">address</td>\n                <td>\n                  <table>\n                    <tr>\n                      <td style=\"font-weight: bold\">line</td>\n                      <td>\n                        <div title=\"line\">22222 Health Authority Drive</div>\n                      </td>\n                    </tr>\n                    <tr>\n                      <td style=\"font-weight: bold\">city</td>\n                      <td>\n                        <div title=\"city\">Ann Arbor</div>\n                      </td>\n                    </tr>\n                    <tr>\n                      <td style=\"font-weight: bold\">state</td>\n                      <td>\n                        <div title=\"state\">MI</div>\n                      </td>\n                    </tr>\n                    <tr>\n                      <td style=\"font-weight: bold\">postalCode</td>\n                      <td>\n                        <div title=\"postalCode\">99999</div>\n                      </td>\n                    </tr>\n                  </table>\n                </td>\n              </tr>\n            </table>\n          </div>"
        },
        "identifier": [
          {
            "system": "http://hl7.org.fhir/sid/us-npi",
            "value": "55555555"
          }
        ],
        "active": true,
        "type": [
          {
            "coding": [
              {
                "system": "http://terminology.hl7.org/CodeSystem/v3-RoleCode",
                "code": "OF",
                "display": "Outpatient facility"
              }
            ]
          }
        ],
        "name": "Salem Medical Center",
        "telecom": [
          {
            "system": "phone",
            "value": "+1-555-555-1111"
          },
          {
            "system": "email",
            "value": "mail@salemmedicalcenter.com"
          }
        ],
        "address": [
          {
            "line": [
              "22222 Health Authority Drive"
            ],
            "city": "Ann Arbor",
            "state": "MI",
            "postalCode": "99999"
          }
        ]
      }
    },
    {
      "fullUrl": "Location/location-ecr-salem-medical-center",
      "resource": {
        "resourceType": "Location",
        "id": "location-ecr-salem-medical-center",
        "meta": {
          "versionId": "12",
          "lastUpdated": "2019-11-02T02:28:50.000-04:00",
          "profile": [
            "http://hl7.org/fhir/us/ecr/StructureDefinition/eicr-location"
          ]
        },
        "text": {
          "status": "generated",
          "div": "<div xmlns=\"http://www.w3.org/1999/xhtml\" lang=\"en-US\">\n            <table xmlns:xsl=\"http://www.w3.org/1999/XSL/Transform\">\n              <tr>\n                <td style=\"font-weight: bold\">id</td>\n                <td>\n                  <div title=\"id\">location-ecr-salem-medical-center</div>\n                </td>\n              </tr>\n              <tr>\n                <td style=\"font-weight: bold\">meta</td>\n                <td>\n                  <table>\n                    <tr>\n                      <td style=\"font-weight: bold\">versionId</td>\n                      <td>\n                        <div title=\"versionId\">12</div>\n                      </td>\n                    </tr>\n                    <tr>\n                      <td style=\"font-weight: bold\">lastUpdated</td>\n                      <td>\n                        <div title=\"lastUpdated\">2019-11-02T02:28:50.000-04:00</div>\n                      </td>\n                    </tr>\n                    <tr>\n                      <td style=\"font-weight: bold\">profile</td>\n                      <td>\n                        <div title=\"profile\">http://hl7.org/fhir/us/ecr/StructureDefinition/eicr-location</div>\n                      </td>\n                    </tr>\n                  </table>\n                </td>\n              </tr>\n              <tr>\n                <td style=\"font-weight: bold\">status</td>\n                <td>\n                  <div title=\"status\">active</div>\n                </td>\n              </tr>\n              <tr>\n                <td style=\"font-weight: bold\">name</td>\n                <td>\n                  <div title=\"name\">Clinic Bldg A, Salem Medical Center</div>\n                </td>\n              </tr>\n              <tr>\n                <td style=\"font-weight: bold\">type</td>\n                <td>\n                  <ul style=\"list-style:none; padding-left:0; margin:0 0;\">\n                    <li>\n                      <ul style=\"list-style:none; padding-left:0; margin:0 0;\">\n                        <li>\n                          <div title=\"display\">Hospital</div>  (<div title=\"code\">HOSP</div> )\n                        </li>\n                        <li>\n                          <div title=\"system\">\n                            <a href=\"http://terminology.hl7.org/CodeSystem/v3-RoleCode\">http://terminology.hl7.org/CodeSystem/v3-RoleCode</a>\n                          </div>\n                        </li>\n                      </ul>\n                    </li>\n                  </ul>\n                </td>\n              </tr>\n              <tr>\n                <td style=\"font-weight: bold\">telecom</td>\n                <td>\n                  <table>\n                    <tr>\n                      <td style=\"font-weight: bold\">system</td>\n                      <td>\n                        <div title=\"system\">phone</div>\n                      </td>\n                    </tr>\n                    <tr>\n                      <td style=\"font-weight: bold\">value</td>\n                      <td>\n                        <div title=\"value\">(+1) (555)555-3001</div>\n                      </td>\n                    </tr>\n                  </table>\n                </td>\n              </tr>\n              <tr>\n                <td style=\"font-weight: bold\">telecom</td>\n                <td>\n                  <table>\n                    <tr>\n                      <td style=\"font-weight: bold\">system</td>\n                      <td>\n                        <div title=\"system\">fax</div>\n                      </td>\n                    </tr>\n                    <tr>\n                      <td style=\"font-weight: bold\">value</td>\n                      <td>\n                        <div title=\"value\">(+1) (555)555-3002</div>\n                      </td>\n                    </tr>\n                  </table>\n                </td>\n              </tr>\n              <tr>\n                <td style=\"font-weight: bold\">telecom</td>\n                <td>\n                  <table>\n                    <tr>\n                      <td style=\"font-weight: bold\">system</td>\n                      <td>\n                        <div title=\"system\">email</div>\n                      </td>\n                    </tr>\n                    <tr>\n                      <td style=\"font-weight: bold\">value</td>\n                      <td>\n                        <div title=\"value\">mail@smc.org</div>\n                      </td>\n                    </tr>\n                  </table>\n                </td>\n              </tr>\n              <tr>\n                <td style=\"font-weight: bold\">address</td>\n                <td>\n                  <table>\n                    <tr>\n                      <td style=\"font-weight: bold\">line</td>\n                      <td>\n                        <div title=\"line\">Clinic Bldg A</div>\n                      </td>\n                    </tr>\n                    <tr>\n                      <td style=\"font-weight: bold\">line</td>\n                      <td>\n                        <div title=\"line\">4444 Healthcare Drive</div>\n                      </td>\n                    </tr>\n                    <tr>\n                      <td style=\"font-weight: bold\">city</td>\n                      <td>\n                        <div title=\"city\">Ann Arbor</div>\n                      </td>\n                    </tr>\n                    <tr>\n                      <td style=\"font-weight: bold\">state</td>\n                      <td>\n                        <div title=\"state\">MI</div>\n                      </td>\n                    </tr>\n                    <tr>\n                      <td style=\"font-weight: bold\">postalCode</td>\n                      <td>\n                        <div title=\"postalCode\">99999</div>\n                      </td>\n                    </tr>\n                  </table>\n                </td>\n              </tr>\n              <tr>\n                <td style=\"font-weight: bold\">managingOrganization</td>\n                <td>\n                  <ul style=\"list-style:none; padding-left:0; margin:0 0;\">\n                    <li>\n                      <a href=\"Organization-organization-ecr-salem-medical-center.html\">Organization/organization-ecr-salem-medical-center</a>\n                    </li>\n                  </ul>\n                </td>\n              </tr>\n            </table>\n          </div>"
        },
        "status": "active",
        "name": "Clinic Bldg A, Salem Medical Center",
        "type": [
          {
            "coding": [
              {
                "system": "http://terminology.hl7.org/CodeSystem/v3-RoleCode",
                "code": "HOSP",
                "display": "Hospital"
              }
            ]
          }
        ],
        "telecom": [
          {
            "system": "phone",
            "value": "(+1) (555)555-3001"
          },
          {
            "system": "fax",
            "value": "(+1) (555)555-3002"
          },
          {
            "system": "email",
            "value": "mail@smc.org"
          }
        ],
        "address": {
          "line": [
            "Clinic Bldg A",
            "4444 Healthcare Drive"
          ],
          "city": "Ann Arbor",
          "state": "MI",
          "postalCode": "99999"
        },
        "managingOrganization": {
          "reference": "Organization/organization-ecr-salem-medical-center"
        }
      }
    }
  ]
}