<?xml version="1.0" encoding="UTF-8"?>
<Bundle xmlns="http://hl7.org/fhir">
   <id value="bundle-rr-collection-communication"/>
   <identifier>
      <system value="urn:ietf:rfc:3986"/>
      <value value="urn:uuid:d922960d-3336-4097-adec-66530873e9f6"/>
   </identifier>
   <type value="collection"/>
   <timestamp value="2016-12-12T09:44:21.000-07:00"/>
   <entry>
      <fullUrl value="urn:uuid:5b2ec5a8-c215-4d51-9962-90af1a20d4bf"/>
      <resource>
         <Communication>
            <id value="RR-communication-d35e6"/>
            <meta>
               <profile value="http://hl7.org/fhir/us/ecr/StructureDefinition/rr-communication"/>
               <!--CDA templateId: urn:hl7ii:2.16.840.1.113883.10.20.15.2.1.2:2017-04-01-->
            </meta>
            <extension url="http://hl7.org/fhir/us/ecr/StructureDefinition/rr-priority-extension">
               <valueCodeableConcept>
                  <coding>
                     <system value="urn:oid:2.16.840.1.114222.4.5.274"/>
                     <code value="RRVS14"/>
                     <display value="Action required"/>
                  </coding>
               </valueCodeableConcept>
            </extension>
            <extension url="http://hl7.org/fhir/us/ecr/StructureDefinition/rr-transformed-from-cda-extension">
               <valueIdentifier>
                  <system value="urn:ietf:rfc:3986"/>
                  <value value="urn:uuid:e6394f95-9dfc-4cb7-8592-8bfafd067286"/>
               </valueIdentifier>
            </extension>
            <identifier>
               <system value="urn:ietf:rfc:3986"/>
               <value value="urn:uuid:e3d22592-e240-4f52-a98e-89eab2bfd95a"/>
            </identifier>
            <status value="completed"/>
            <category>
               <coding>
                  <system value="http://loinc.org"/>
                  <code value="88085-6"/>
                  <display value="Reportability response report Document Public health"/>
               </coding>
            </category>
            <subject>
               <reference value="urn:uuid:e2e900cc-c367-42fc-8fcb-5aa421c9f25e"/>
            </subject>
            <topic>
               <text value="Subject: Public Health Reporting Communication: one or more conditions are reportable, or may be reportable, to public health."/>
            </topic>
            <encounter>
               <reference value="urn:uuid:8ef1d011-e53d-48d1-a15a-bf95c9699d1f"/>
            </encounter>
            <sent value="2016-12-12T09:44:21.000-07:00"/>
            <recipient>
               <reference value="urn:uuid:f6c7aa39-218e-44c8-9173-595c2acd1cec"/>
            </recipient>
            <sender>
               <reference value="urn:uuid:1cd9238b-0be9-4a51-bc4e-61883e2f4bfd"/>
            </sender>
            <payload id="reportability-response-summary">
               <contentString value="Your organization electronically submitted an initial case report to determine if reporting to public health is needed for a patient. &#xA; "/>
            </payload>
            <payload id="eicr-information">
               <extension id="eicr-processing-status"
                          url="http://hl7.org/fhir/us/ecr/StructureDefinition/rr-eicr-processing-status-extension">
                  <extension url="eICRProcessingStatus">
                     <valueReference>
                        <reference value="urn:uuid:8428c851-0bf9-4c1b-9e29-40de6f16448c"/>
                     </valueReference>
                  </extension>
               </extension>
               <extension url="http://hl7.org/fhir/us/ecr/StructureDefinition/rr-eicr-receipt-time-extension">
                  <valueDateTime value="2016-12-12T15:20:00.000-07:00"/>
               </extension>
               <contentReference>
                  <identifier>
                     <system value="urn:ietf:rfc:3986"/>
                     <value value="urn:uuid:e6394f95-9dfc-4cb7-8592-8bfafd067286"/>
                  </identifier>
               </contentReference>
            </payload>
            <payload id="relevant-reportable-condition">
               <contentReference>
                  <reference value="urn:uuid:38c360f6-90b3-48d1-b57b-91fa66e16cf9"/>
               </contentReference>
            </payload>
            <payload id="relevant-reportable-condition">
               <contentReference>
                  <reference value="urn:uuid:9fd11836-076f-4816-8de3-6065481a9017"/>
               </contentReference>
            </payload>
            <payload id="relevant-reportable-condition">
               <contentReference>
                  <reference value="urn:uuid:c7b52c6b-1ec4-48f2-b481-47f780e78912"/>
               </contentReference>
            </payload>
            <payload id="relevant-reportable-condition">
               <contentReference>
                  <reference value="urn:uuid:a93f021d-7bff-4dae-9c5a-f6853063fabb"/>
               </contentReference>
            </payload>
         </Communication>
      </resource>
   </entry>
   <entry>
      <fullUrl value="urn:uuid:e2e900cc-c367-42fc-8fcb-5aa421c9f25e"/>
      <resource>
         <Patient>
            <meta>
               <profile value="http://hl7.org/fhir/us/ecr/StructureDefinition/ecr-patient"/>
               <!--CDA participant: ClinicalDocument[templateId/@root='2.16.840.1.113883.10.20.15.2.1.2']/recordTarget-->
            </meta>
            <text>
               <status value="generated"/>
               <div xmlns="http://www.w3.org/1999/xhtml">
                  <h1>Kidd, Kari</h1>
                  <p>Telecom: tel:555-555-2005</p>
                  <p>Telecom: mailto:kkkidd@email.com</p>
                  <p>Address: 288 North 1460 West<br/>Salt Lake City<br/>UT<br/>84116<br/>Salt Lake<br/>US</p>
                  <p>Gender: F</p>
                  <p>Birthdate: 2014-01-01</p>
                  <p>Language: en</p>
               </div>
            </text>
            <extension url="http://hl7.org/fhir/us/core/StructureDefinition/us-core-race">
               <extension url="ombCategory">
                  <valueCoding>
                     <system value="urn:oid:2.16.840.1.113883.6.238"/>
                     <code value="2028-9"/>
                     <display value="ASIAN"/>
                  </valueCoding>
               </extension>
               <extension url="text">
                  <valueString value="ASIAN"/>
               </extension>
            </extension>
            <extension url="http://hl7.org/fhir/us/core/StructureDefinition/us-core-ethnicity">
               <extension url="ombCategory">
                  <valueCoding>
                     <system value="urn:oid:2.16.840.1.113883.6.238"/>
                     <code value="2186-5"/>
                     <display value="Not Hispanic or Latino"/>
                  </valueCoding>
               </extension>
               <extension url="text">
                  <valueString value="Not Hispanic or Latino"/>
               </extension>
            </extension>
            <identifier>
               <system value="urn:oid:2.16.840.1.113883.19.5"/>
               <value value="PT-002597"/>
            </identifier>
            <name>
               <use value="usual"/>
               <text value="Kidd, Kari (usual name)"/>
               <family value="Kidd"/>
               <given value="Kari"/>
            </name>
            <telecom>
               <system value="phone"/>
               <value value="555-555-2005"/>
               <use value="home"/>
            </telecom>
            <telecom>
               <system value="email"/>
               <value value="kkkidd@email.com"/>
               <use value="home"/>
            </telecom>
            <gender value="female"/>
            <birthDate value="2014-01-01"/>
            <deceasedBoolean value="false"/>
            <address>
               <use value="home"/>
               <line value="288 North 1460 West"/>
               <city value="Salt Lake City"/>
               <district value="Salt Lake"/>
               <state value="UT"/>
               <postalCode value="84116"/>
               <country value="US"/>
            </address>
            <contact>
               <relationship>
                  <coding>
                     <system value="http://terminology.hl7.org/CodeSystem/v3-RoleClass"/>
                     <code value="GUARD"/>
                  </coding>
               </relationship>
               <name>
                  <use value="usual"/>
                  <text value="Mum, Martha (usual name)"/>
                  <family value="Mum"/>
                  <given value="Martha"/>
               </name>
               <telecom>
                  <system value="email"/>
                  <value value="mmmum@email.com"/>
                  <use value="home"/>
               </telecom>
               <address>
                  <use value="home"/>
                  <line value="288 North 1460 West"/>
                  <city value="Salt Lake City"/>
                  <district value="Salt Lake"/>
                  <state value="UT"/>
                  <postalCode value="84116"/>
                  <country value="US"/>
               </address>
            </contact>
            <communication>
               <language>
                  <coding>
                     <system value="urn:ietf:bcp:47"/>
                     <code value="en"/>
                  </coding>
               </language>
               <preferred value="true"/>
            </communication>
         </Patient>
      </resource>
   </entry>
   <entry>
      <fullUrl value="urn:uuid:8ef1d011-e53d-48d1-a15a-bf95c9699d1f"/>
      <resource>
         <Encounter>
            <identifier>
               <system value="urn:oid:2.16.840.1.113883.19"/>
               <value value="9937012"/>
            </identifier>
            <status value="finished"/>
            <class>
               <system value="http://terminology.hl7.org/CodeSystem/v3-ActCode"/>
               <code value="AMB"/>
            </class>
            <type>
               <coding>
                  <system value="http://www.ama-assn.org/go/cpt"/>
                  <code value="99213"/>
                  <display value="Office outpatient visit 15 minutes"/>
               </coding>
               <coding>
                  <system value="http://terminology.hl7.org/CodeSystem/v3-ActCode"/>
                  <code value="AMB"/>
                  <display value="Ambulatory"/>
               </coding>
            </type>
            <subject>
               <reference value="urn:uuid:e2e900cc-c367-42fc-8fcb-5aa421c9f25e"/>
            </subject>
            <participant>
               <individual>
                  <reference value="urn:uuid:9cc2de4e-83c9-4b05-a2ce-06f7e19af6c1"/>
               </individual>
            </participant>
            <period>
               <start value="2016-01-04"/>
               <end value="2016-01-04"/>
            </period>
            <location>
               <location>
                  <reference value="urn:uuid:a943649d-a799-4b84-9847-c052b9de0282"/>
               </location>
            </location>
            <serviceProvider>
               <reference value="urn:uuid:82fbc4a3-1bf5-4d33-a65a-59561772e4f3"/>
            </serviceProvider>
         </Encounter>
      </resource>
   </entry>
   <entry>
      <fullUrl value="urn:uuid:9cc2de4e-83c9-4b05-a2ce-06f7e19af6c1"/>
      <resource>
         <PractitionerRole><!--responsibleParty/assignedEntity-->
            <identifier>
               <system value="http://hl7.org/fhir/sid/us-npi"/>
               <value value="66666666666"/>
            </identifier>
            <practitioner>
               <reference value="urn:uuid:a5f7ad53-b100-4aaf-aef6-4147d5366e8e"/>
            </practitioner>
            <organization>
               <reference value="urn:uuid:73a4e7c0-10ea-4084-be3a-235deb011c6f"/>
            </organization>
            <telecom>
               <system value="phone"/>
               <value value="555-555-1002 ext 9998"/>
               <use value="work"/>
            </telecom>
            <telecom>
               <system value="fax"/>
               <value value="555-555-1003"/>
               <use value="work"/>
            </telecom>
         </PractitionerRole>
      </resource>
   </entry>
   <entry>
      <fullUrl value="urn:uuid:a5f7ad53-b100-4aaf-aef6-4147d5366e8e"/>
      <resource>
         <Practitioner><!--assignedEntity[cda:id[@root="2.16.840.1.113883.4.6"]]/assignedPerson-->
            <meta>
               <profile value="http://hl7.org/fhir/us/core/StructureDefinition/us-core-practitioner"/>
            </meta>
            <text>
               <status value="generated"/>
               <div xmlns="http://www.w3.org/1999/xhtml">
                  <p>Name: Seven, Henry</p>
                  <p>---TODO: ID info---</p>
                  <p>Telephone: tel:555-555-1002 ext 9998 fax:555-555-1003 </p>
               </div>
            </text>
            <identifier>
               <system value="http://hl7.org/fhir/sid/us-npi"/>
               <value value="66666666666"/>
            </identifier>
            <name>
               <text value="Seven, , Henry"/>
               <family value="Seven"/>
               <given value="Henry"/>
            </name>
            <telecom>
               <system value="phone"/>
               <value value="555-555-1002 ext 9998"/>
               <use value="work"/>
            </telecom>
            <telecom>
               <system value="fax"/>
               <value value="555-555-1003"/>
               <use value="work"/>
            </telecom>
            <address>
               <use value="home"/>
               <line value="1002 Healthcare Drive"/>
               <city value="TBDProvCity"/>
               <district value="Salt Lake"/>
               <state value="TBDProvState"/>
               <postalCode value="TBDProvZip"/>
               <country value="US"/>
            </address>
         </Practitioner>
      </resource>
   </entry>
   <entry>
      <fullUrl value="urn:uuid:73a4e7c0-10ea-4084-be3a-235deb011c6f"/>
      <resource>
         <Organization>
            <identifier>
               <system value="http://hl7.org/fhir/sid/us-npi"/>
               <value value="TBDFacility#"/>
            </identifier>
            <active value="true"/>
            <name value="TBDFacilityName"/>
            <telecom>
               <system value="phone"/>
               <value value="555-555-1002 ext 9998"/>
               <use value="work"/>
            </telecom>
            <telecom>
               <system value="fax"/>
               <value value="555-555-1003"/>
               <use value="work"/>
            </telecom>
            <address>
               <use value="work"/>
               <line value="120 W Saginaw St"/>
               <city value="East Lansing"/>
               <state value="MI"/>
               <postalCode value="48823"/>
            </address>
         </Organization>
      </resource>
   </entry>
   <entry>
      <fullUrl value="urn:uuid:a943649d-a799-4b84-9847-c052b9de0282"/>
      <resource>
         <Location>
            <identifier>
               <system value="http://hl7.org/fhir/sid/us-npi"/>
               <value value="8299"/>
            </identifier>
            <name value="TBD"/>
            <type>
               <coding>
                  <system value="http://terminology.hl7.org/CodeSystem/v3-RoleCode"/>
                  <code value="OF"/>
                  <display value="Outpatient Facility"/>
               </coding>
            </type>
            <telecom>
               <system value="phone"/>
               <value value="TBDFacilityPhone"/>
               <use value="work"/>
            </telecom>
            <telecom>
               <system value="fax"/>
               <value value="TBDFacilityFax"/>
               <use value="work"/>
            </telecom>
            <address>
               <use value="work"/>
               <line value="120 W Saginaw St"/>
               <city value="East Lansing"/>
               <state value="MI"/>
               <postalCode value="48823"/>
            </address>
         </Location>
      </resource>
   </entry>
   <entry>
      <fullUrl value="urn:uuid:82fbc4a3-1bf5-4d33-a65a-59561772e4f3"/>
      <resource>
         <Organization>
            <identifier>
               <system value="urn:ietf:rfc:3986"/>
               <value value="urn:uuid:82fbc4a3-1bf5-4d33-a65a-59561772e4f3"/>
            </identifier>
            <active value="true"/>
            <name value="TBD"/>
            <telecom>
               <system value="phone"/>
               <value value="TBDFacilityPhone"/>
               <use value="work"/>
            </telecom>
            <telecom>
               <system value="fax"/>
               <value value="TBDFacilityFax"/>
               <use value="work"/>
            </telecom>
            <address>
               <use value="work"/>
               <line value="120 W Saginaw St"/>
               <city value="East Lansing"/>
               <state value="MI"/>
               <postalCode value="48823"/>
            </address>
         </Organization>
      </resource>
   </entry>
   <entry>
      <fullUrl value="urn:uuid:cefbc264-0935-4061-ba29-8b790f5a69d5"/>
      <resource>
         <Location><!--cda:assignedAuthor[cda:assignedAuthoringDevice]-->
            <telecom>
               <system value="phone"/>
               <value value="+1(844)836-8377"/>
               <use value="work"/>
            </telecom>
            <address>
               <line value="8515 Georgia Avenue, Suite 700"/>
               <city value="Silver Spring"/>
               <state value="MD"/>
               <postalCode value="20910"/>
               <country value="US"/>
            </address>
         </Location>
      </resource>
   </entry>
   <entry>
      <fullUrl value="urn:uuid:1cd9238b-0be9-4a51-bc4e-61883e2f4bfd"/>
      <resource>
         <Device>
            <identifier>
               <system value="urn:ietf:rfc:3986"/>
               <value value="urn:oid:2.16.840.1.114222.4.1.217446"/>
            </identifier>
            <!--cda:assignedAuthoringDevice-->
            <modelNumber value="APHL"/>
            <version>
               <value value="AIMS"/>
            </version>
            <location>
               <reference value="urn:uuid:cefbc264-0935-4061-ba29-8b790f5a69d5"/>
            </location>
         </Device>
      </resource>
   </entry>
   <entry>
      <fullUrl value="urn:uuid:66a7a440-e865-4c24-a591-5429f1f5be6b"/>
      <resource>
         <Organization>
            <identifier>
               <system value="urn:ietf:rfc:3986"/>
               <value value="urn:oid:2.16.840.1.114222.4.1.217446"/>
            </identifier>
            <active value="true"/>
            <name value="APHL | Association of Public Health Laboratories."/>
            <telecom>
               <system value="phone"/>
               <value value="+1(844)836-8377"/>
               <use value="work"/>
            </telecom>
            <address>
               <line value="8515 Georgia Avenue, Suite 700"/>
               <city value="Silver Spring"/>
               <state value="MD"/>
               <postalCode value="20910"/>
               <country value="US"/>
            </address>
         </Organization>
      </resource>
   </entry>
   <entry>
      <fullUrl value="urn:uuid:f6c7aa39-218e-44c8-9173-595c2acd1cec"/>
      <resource>
         <Organization>
            <identifier>
               <system value="urn:ietf:rfc:3986"/>
               <value value="urn:uuid:f6c7aa39-218e-44c8-9173-595c2acd1cec"/>
            </identifier>
            <active value="true"/>
            <name value="TBDFacilityName"/>
            <telecom>
               <system value="phone"/>
               <value value="555-555-1002 ext 9998"/>
               <use value="work"/>
            </telecom>
            <telecom>
               <system value="fax"/>
               <value value="555-555-1003"/>
               <use value="work"/>
            </telecom>
            <telecom>
               <system value="email"/>
               <value value="henrysevenmd@email.net"/>
               <use value="work"/>
            </telecom>
            <address>
               <use value="work"/>
               <line value="120 W Saginaw St"/>
               <city value="East Lansing"/>
               <state value="MI"/>
               <postalCode value="48823"/>
            </address>
         </Organization>
      </resource>
   </entry>
   <entry xmlns:lcg="http://www.lantanagroup.com">
      <fullUrl value="urn:uuid:a09c629e-ffee-4d3d-a63e-2ab94bc0899c"/>
      <resource>
         <DocumentReference>
            <status value="current"/>
            <type>
               <coding>
                  <system value="http://loinc.org"/>
                  <code value="55751-2"/>
                  <display value="Public Health Case Report (eICR)"/>
               </coding>
            </type>
            <!--Date of external document's creation is not known?-->
            <content>
               <attachment>
                  <url><!--URL cannot be determined because CDA document does not have a cda:setId for the cda:externalDocument--></url>
               </attachment>
            </content>
         </DocumentReference>
      </resource>
   </entry>
   <entry>
      <fullUrl value="urn:uuid:8428c851-0bf9-4c1b-9e29-40de6f16448c"/>
      <resource>
         <Observation><!--Processing Status-->
            <meta>
               <profile value="http://hl7.org/fhir/us/ecr/StructureDefinition/rr-eicr-processing-status-observation"/>
               <!--CDA templateId: urn:hl7ii:2.16.840.1.113883.10.20.15.2.3.29:2017-04-01-->
            </meta>
            <status value="final"/>
            <code>
               <coding>
                  <system value="urn:oid:2.16.840.1.114222.4.5.274"/>
                  <code value="RRVS19"/>
                  <display value="eICR processed"/>
               </coding>
            </code>
         </Observation>
      </resource>
   </entry>
   <entry>
      <fullUrl value="urn:uuid:38c360f6-90b3-48d1-b57b-91fa66e16cf9"/>
      <resource>
         <PlanDefinition>
            <id value="RR-plandefinition-d35e421"/>
            <meta>
               <profile value="http://hl7.org/fhir/us/ecr/StructureDefinition/rr-relevant-reportable-condition-plandefinition"/>
               <!--CDA templateId: urn:hl7ii:2.16.840.1.113883.10.20.15.2.3.13:2017-04-01-->
            </meta>
            <extension url="http://hl7.org/fhir/us/ecr/StructureDefinition/rr-determination-of-reportability-extension">
               <valueCodeableConcept>
                  <coding>
                     <system value="urn:oid:2.16.840.1.114222.4.5.274"/>
                     <code value="RRVS1"/>
                     <display value="Reportable"/>
                  </coding>
               </valueCodeableConcept>
            </extension>
            <url value="RR-plandefinition-d35e421"/>
            <status value="active"/>
            <publisher>
               <extension url="http://hl7.org/fhir/us/ecr/StructureDefinition/rr-rules-authoring-agency-organization-extension">
                  <valueReference>
                     <reference value="urn:uuid:f0053e2b-9431-4649-803c-c3923865c19e"/>
                  </valueReference>
               </extension>
            </publisher>
            <jurisdiction>
               <extension url="http://hl7.org/fhir/us/ecr/StructureDefinition/rr-location-relevance-extension">
                  <valueCodeableConcept>
                     <coding>
                        <system value="http://terminology.hl7.org/CodeSystem/v3-NullFlavor"/>
                        <code value="NI"/>
                        <display value="NoInformation"/>
                     </coding>
                  </valueCodeableConcept>
               </extension>
               <extension url="http://hl7.org/fhir/us/ecr/StructureDefinition/rr-routing-entity-organization-extension">
                  <valueReference>
                     <reference value="urn:uuid:d744a635-52f6-4811-829c-1157c11d1466"/>
                  </valueReference>
               </extension>
               <extension url="http://hl7.org/fhir/us/ecr/StructureDefinition/rr-responsible-agency-organization-extension">
                  <valueReference>
                     <reference value="urn:uuid:7c929db6-bacb-46c5-9e15-aa6948140147"/>
                  </valueReference>
               </extension>
               <coding>
                  <system value="urn:iso:std:iso:3166"/>
                  <code value="US"/>
                  <display value="United States of America"/>
               </coding>
            </jurisdiction>
            <goal>
               <description>
                  <text value="Reportability Feedback"/>
               </description>
               <addresses>
                  <coding>
                     <system value="http://snomed.info/sct"/>
                     <code value="27836007"/>
                     <display value="Pertussis (disorder)"/>
                  </coding>
               </addresses>
            </goal>
            <action>
               <documentation>
                  <extension url="http://hl7.org/fhir/us/ecr/StructureDefinition/rr-external-resource-type-extension">
                     <valueCodeableConcept>
                        <coding>
                           <system value="urn:oid:2.16.840.1.114222.4.5.274"/>
                           <code value="RRVS13"/>
                           <display value="Outbreak- or cluster related"/>
                        </coding>
                     </valueCodeableConcept>
                  </extension>
                  <extension url="http://hl7.org/fhir/us/ecr/StructureDefinition/rr-priority-extension">
                     <valueCodeableConcept>
                        <coding>
                           <system value="urn:oid:2.16.840.1.114222.4.5.274"/>
                           <code value="RRVS16"/>
                           <display value="Action requested"/>
                        </coding>
                     </valueCodeableConcept>
                  </extension>
                  <type value="documentation"/>
                  <display value="The following outbreak recommendations and documents were developed in collaboration with representatives from the Utah Department of Health and Utah's Local Health Departments to provide statewide consistency in situations involving pertussis outbreaks. The purpose of these guidelines is to provide effective management tools for pertussis outbreak situations."/>
                  <url value="http://health.utah.gov/epi/diseases/pertussis/outbreak_recommend"/>
               </documentation>
               <documentation>
                  <extension url="http://hl7.org/fhir/us/ecr/StructureDefinition/rr-external-resource-type-extension">
                     <valueCodeableConcept>
                        <coding>
                           <system value="urn:oid:2.16.840.1.114222.4.5.274"/>
                           <code value="RRVS8"/>
                           <display value="Additional reporting needs"/>
                        </coding>
                     </valueCodeableConcept>
                  </extension>
                  <extension url="http://hl7.org/fhir/us/ecr/StructureDefinition/rr-priority-extension">
                     <valueCodeableConcept>
                        <coding>
                           <system value="urn:oid:2.16.840.1.114222.4.5.274"/>
                           <code value="RRVS14"/>
                           <display value="Action required"/>
                        </coding>
                     </valueCodeableConcept>
                  </extension>
                  <type value="documentation"/>
                  <display value="Additional information for the required reporting of Pertussis must be submitted to the Utah Department of Health. The additional information can be submitted here. "/>
                  <url value="https://pappsnodts04.cap.org/SDCApp/services/FormManager.asmx"/>
               </documentation>
               <documentation>
                  <extension url="http://hl7.org/fhir/us/ecr/StructureDefinition/rr-external-resource-type-extension">
                     <valueCodeableConcept>
                        <coding>
                           <system value="urn:oid:2.16.840.1.114222.4.5.274"/>
                           <code value="RRVS9"/>
                           <display value="Additional detection and/or laboratory testing needs"/>
                        </coding>
                     </valueCodeableConcept>
                  </extension>
                  <extension url="http://hl7.org/fhir/us/ecr/StructureDefinition/rr-priority-extension">
                     <valueCodeableConcept>
                        <coding>
                           <system value="urn:oid:2.16.840.1.114222.4.5.274"/>
                           <code value="RRVS15"/>
                           <display value="Information only"/>
                        </coding>
                     </valueCodeableConcept>
                  </extension>
                  <type value="documentation"/>
                  <display value="Best practices for healthcare professionals on the use of Polymerase Chain Reaction (PCR) for diagnosing Pertussis"/>
                  <url value="https://www.cdc.gov/pertussis/clinical/diagnostic-testing/diagnosis-pcr-bestpractices.html"/>
               </documentation>
               <documentation>
                  <extension url="http://hl7.org/fhir/us/ecr/StructureDefinition/rr-external-resource-type-extension">
                     <valueCodeableConcept>
                        <coding>
                           <system value="urn:oid:2.16.840.1.114222.4.5.274"/>
                           <code value="RRVS10"/>
                           <display value="Treatment and/or prevention"/>
                        </coding>
                     </valueCodeableConcept>
                  </extension>
                  <extension url="http://hl7.org/fhir/us/ecr/StructureDefinition/rr-priority-extension">
                     <valueCodeableConcept>
                        <coding>
                           <system value="urn:oid:2.16.840.1.114222.4.5.274"/>
                           <code value="RRVS15"/>
                           <display value="Information only"/>
                        </coding>
                     </valueCodeableConcept>
                  </extension>
                  <type value="documentation"/>
                  <display value="More information on specimen collection"/>
                  <url value="https://www.cdc.gov/pertussis/clinical/diagnostic-testing/specimen-collection.html"/>
               </documentation>
               <documentation>
                  <extension url="http://hl7.org/fhir/us/ecr/StructureDefinition/rr-external-resource-type-extension">
                     <valueCodeableConcept>
                        <coding>
                           <system value="urn:oid:2.16.840.1.114222.4.5.274"/>
                           <code value="RRVS10"/>
                           <display value="Treatment and/or prevention"/>
                        </coding>
                     </valueCodeableConcept>
                  </extension>
                  <extension url="http://hl7.org/fhir/us/ecr/StructureDefinition/rr-priority-extension">
                     <valueCodeableConcept>
                        <coding>
                           <system value="urn:oid:2.16.840.1.114222.4.5.274"/>
                           <code value="RRVS15"/>
                           <display value="Information only"/>
                        </coding>
                     </valueCodeableConcept>
                  </extension>
                  <type value="documentation"/>
                  <display value="Recommended antimicrobial therapy and chemoprophylaxis"/>
                  <url value="https://www.cdc.gov/pertussis/clinical/treatment.html"/>
               </documentation>
               <documentation>
                  <extension url="http://hl7.org/fhir/us/ecr/StructureDefinition/rr-external-resource-type-extension">
                     <valueCodeableConcept>
                        <coding>
                           <system value="urn:oid:2.16.840.1.114222.4.5.274"/>
                           <code value="RRVS12"/>
                           <display value="PHA contact info"/>
                        </coding>
                     </valueCodeableConcept>
                  </extension>
                  <extension url="http://hl7.org/fhir/us/ecr/StructureDefinition/rr-priority-extension">
                     <valueCodeableConcept>
                        <coding>
                           <system value="urn:oid:2.16.840.1.114222.4.5.274"/>
                           <code value="RRVS15"/>
                           <display value="Information only"/>
                        </coding>
                     </valueCodeableConcept>
                  </extension>
                  <type value="documentation"/>
                  <display value="If you have additional questions regarding Pertussis or reporting, the Utah Department of Health can be reached for 24-Hour Urgent Event &amp; Disease Reporting at 1-888-EPI-UTAH (374-8824)."/>
               </documentation>
               <documentation>
                  <extension url="http://hl7.org/fhir/us/ecr/StructureDefinition/rr-external-resource-type-extension">
                     <valueCodeableConcept>
                        <coding>
                           <system value="urn:oid:2.16.840.1.114222.4.5.274"/>
                           <code value="RRVS11"/>
                           <display value="Additional resources"/>
                        </coding>
                     </valueCodeableConcept>
                  </extension>
                  <extension url="http://hl7.org/fhir/us/ecr/StructureDefinition/rr-priority-extension">
                     <valueCodeableConcept>
                        <coding>
                           <system value="urn:oid:2.16.840.1.114222.4.5.274"/>
                           <code value="RRVS15"/>
                           <display value="Information only"/>
                        </coding>
                     </valueCodeableConcept>
                  </extension>
                  <type value="documentation"/>
                  <display value="Utah Department of Health's Pertussis Disease Investigation Plan"/>
                  <url value="http://health.utah.gov/epi/diseases/pertussis/plan.pdf"/>
               </documentation>
               <documentation>
                  <extension url="http://hl7.org/fhir/us/ecr/StructureDefinition/rr-external-resource-type-extension">
                     <valueCodeableConcept>
                        <coding>
                           <system value="urn:oid:2.16.840.1.114222.4.5.274"/>
                           <code value="RRVS11"/>
                           <display value="Additional resources"/>
                        </coding>
                     </valueCodeableConcept>
                  </extension>
                  <extension url="http://hl7.org/fhir/us/ecr/StructureDefinition/rr-priority-extension">
                     <valueCodeableConcept>
                        <coding>
                           <system value="urn:oid:2.16.840.1.114222.4.5.274"/>
                           <code value="RRVS15"/>
                           <display value="Information only"/>
                        </coding>
                     </valueCodeableConcept>
                  </extension>
                  <type value="documentation"/>
                  <display value="Pertussis Fact Sheet for Parents"/>
                  <url value="http://health.utah.gov/epi/diseases/pertussis/factsheet_parents.pdf"/>
               </documentation>
               <timingDuration>
                  <value value="3"/>
                  <unit value="d"/>
               </timingDuration>
               <timingDuration>
                  <value value="1"/>
                  <unit value="d"/>
               </timingDuration>
               <timingDuration>
                  <value value="1"/>
                  <unit value="d"/>
               </timingDuration>
               <timingDuration>
                  <value value="3"/>
                  <unit value="d"/>
               </timingDuration>
            </action>
         </PlanDefinition>
      </resource>
   </entry>
   <entry>
      <fullUrl value="urn:uuid:9fd11836-076f-4816-8de3-6065481a9017"/>
      <resource>
         <PlanDefinition>
            <id value="RR-plandefinition-d35e586"/>
            <meta>
               <profile value="http://hl7.org/fhir/us/ecr/StructureDefinition/rr-relevant-reportable-condition-plandefinition"/>
               <!--CDA templateId: urn:hl7ii:2.16.840.1.113883.10.20.15.2.3.13:2017-04-01-->
            </meta>
            <extension url="http://hl7.org/fhir/us/ecr/StructureDefinition/rr-determination-of-reportability-extension">
               <valueCodeableConcept>
                  <coding>
                     <system value="urn:oid:2.16.840.1.114222.4.5.274"/>
                     <code value="RRVS1"/>
                     <display value="Reportable"/>
                  </coding>
               </valueCodeableConcept>
            </extension>
            <url value="RR-plandefinition-d35e586"/>
            <status value="active"/>
            <publisher>
               <extension url="http://hl7.org/fhir/us/ecr/StructureDefinition/rr-rules-authoring-agency-organization-extension">
                  <valueReference>
                     <reference value="urn:uuid:1b9bfd9e-76b7-40a7-af4b-2eb6e562346d"/>
                  </valueReference>
               </extension>
            </publisher>
            <jurisdiction>
               <extension url="http://hl7.org/fhir/us/ecr/StructureDefinition/rr-location-relevance-extension">
                  <valueCodeableConcept>
                     <coding>
                        <system value="http://terminology.hl7.org/CodeSystem/v3-NullFlavor"/>
                        <code value="NI"/>
                        <display value="NoInformation"/>
                     </coding>
                  </valueCodeableConcept>
               </extension>
               <extension url="http://hl7.org/fhir/us/ecr/StructureDefinition/rr-routing-entity-organization-extension">
                  <valueReference>
                     <reference value="urn:uuid:a2abcda5-c28d-479d-b6b6-115d37bc7222"/>
                  </valueReference>
               </extension>
               <extension url="http://hl7.org/fhir/us/ecr/StructureDefinition/rr-responsible-agency-organization-extension">
                  <valueReference>
                     <reference value="urn:uuid:155def73-127b-4f64-84d5-33aa93e8ae25"/>
                  </valueReference>
               </extension>
               <coding>
                  <system value="urn:iso:std:iso:3166"/>
                  <code value="US"/>
                  <display value="United States of America"/>
               </coding>
            </jurisdiction>
            <goal>
               <description>
                  <text value="Reportability Feedback"/>
               </description>
               <addresses>
                  <coding>
                     <system value="http://snomed.info/sct"/>
                     <code value="302231008"/>
                     <display value="Salmonella infection (disorder)"/>
                  </coding>
               </addresses>
            </goal>
            <action>
               <documentation>
                  <extension url="http://hl7.org/fhir/us/ecr/StructureDefinition/rr-external-resource-type-extension">
                     <valueCodeableConcept>
                        <coding>
                           <system value="urn:oid:2.16.840.1.114222.4.5.274"/>
                           <code value="RRVS11"/>
                           <display value="Additional resources"/>
                        </coding>
                     </valueCodeableConcept>
                  </extension>
                  <extension url="http://hl7.org/fhir/us/ecr/StructureDefinition/rr-priority-extension">
                     <valueCodeableConcept>
                        <coding>
                           <system value="urn:oid:2.16.840.1.114222.4.5.274"/>
                           <code value="RRVS15"/>
                           <display value="Information only"/>
                        </coding>
                     </valueCodeableConcept>
                  </extension>
                  <type value="documentation"/>
                  <display value="Information on salmonellosis surveillance in Utah"/>
                  <url value="http://health.utah.gov/epi/diseases/salmonellosis/plan.pdf"/>
               </documentation>
               <timingDuration>
                  <value value="3"/>
                  <unit value="d"/>
               </timingDuration>
               <timingDuration>
                  <value value="1"/>
                  <unit value="d"/>
               </timingDuration>
               <timingDuration>
                  <value value="1"/>
                  <unit value="d"/>
               </timingDuration>
               <timingDuration>
                  <value value="3"/>
                  <unit value="d"/>
               </timingDuration>
            </action>
         </PlanDefinition>
      </resource>
   </entry>
   <entry>
      <fullUrl value="urn:uuid:c7b52c6b-1ec4-48f2-b481-47f780e78912"/>
      <resource>
         <PlanDefinition>
            <id value="RR-plandefinition-d35e654"/>
            <meta>
               <profile value="http://hl7.org/fhir/us/ecr/StructureDefinition/rr-relevant-reportable-condition-plandefinition"/>
               <!--CDA templateId: urn:hl7ii:2.16.840.1.113883.10.20.15.2.3.13:2017-04-01-->
            </meta>
            <extension url="http://hl7.org/fhir/us/ecr/StructureDefinition/rr-determination-of-reportability-extension">
               <valueCodeableConcept>
                  <coding>
                     <system value="urn:oid:2.16.840.1.114222.4.5.274"/>
                     <code value="RRVS1"/>
                     <display value="Reportable"/>
                  </coding>
               </valueCodeableConcept>
            </extension>
            <url value="RR-plandefinition-d35e654"/>
            <status value="active"/>
            <publisher>
               <extension url="http://hl7.org/fhir/us/ecr/StructureDefinition/rr-rules-authoring-agency-organization-extension">
                  <valueReference>
                     <reference value="urn:uuid:82e54271-cc66-46c7-a56e-5f22b27e4a89"/>
                  </valueReference>
               </extension>
            </publisher>
            <jurisdiction>
               <extension url="http://hl7.org/fhir/us/ecr/StructureDefinition/rr-location-relevance-extension">
                  <valueCodeableConcept>
                     <coding>
                        <system value="http://terminology.hl7.org/CodeSystem/v3-NullFlavor"/>
                        <code value="NI"/>
                        <display value="NoInformation"/>
                     </coding>
                  </valueCodeableConcept>
               </extension>
               <extension url="http://hl7.org/fhir/us/ecr/StructureDefinition/rr-routing-entity-organization-extension">
                  <valueReference>
                     <reference value="urn:uuid:a3a5b2f1-b71e-4ddd-bc82-ec39a52ab9ad"/>
                  </valueReference>
               </extension>
               <extension url="http://hl7.org/fhir/us/ecr/StructureDefinition/rr-responsible-agency-organization-extension">
                  <valueReference>
                     <reference value="urn:uuid:f662bd85-59c2-4440-855b-25f511ce48ea"/>
                  </valueReference>
               </extension>
               <coding>
                  <system value="urn:iso:std:iso:3166"/>
                  <code value="US"/>
                  <display value="United States of America"/>
               </coding>
            </jurisdiction>
            <goal>
               <description>
                  <text value="Reportability Feedback"/>
               </description>
               <addresses>
                  <coding>
                     <system value="http://snomed.info/sct"/>
                     <code value="302231008"/>
                     <display value="Salmonella infection (disorder)"/>
                  </coding>
               </addresses>
            </goal>
            <action>
               <timingDuration>
                  <value value="3"/>
                  <unit value="d"/>
               </timingDuration>
               <timingDuration>
                  <value value="1"/>
                  <unit value="d"/>
               </timingDuration>
               <timingDuration>
                  <value value="1"/>
                  <unit value="d"/>
               </timingDuration>
               <timingDuration>
                  <value value="3"/>
                  <unit value="d"/>
               </timingDuration>
            </action>
         </PlanDefinition>
      </resource>
   </entry>
   <entry>
      <fullUrl value="urn:uuid:a93f021d-7bff-4dae-9c5a-f6853063fabb"/>
      <resource>
         <PlanDefinition>
            <id value="RR-plandefinition-d35e708"/>
            <meta>
               <profile value="http://hl7.org/fhir/us/ecr/StructureDefinition/rr-relevant-reportable-condition-plandefinition"/>
               <!--CDA templateId: urn:hl7ii:2.16.840.1.113883.10.20.15.2.3.13:2017-04-01-->
            </meta>
            <extension url="http://hl7.org/fhir/us/ecr/StructureDefinition/rr-determination-of-reportability-extension">
               <valueCodeableConcept>
                  <coding>
                     <system value="urn:oid:2.16.840.1.114222.4.5.274"/>
                     <code value="RRVS1"/>
                     <display value="Reportable"/>
                  </coding>
               </valueCodeableConcept>
            </extension>
            <url value="RR-plandefinition-d35e708"/>
            <status value="active"/>
            <publisher>
               <extension url="http://hl7.org/fhir/us/ecr/StructureDefinition/rr-rules-authoring-agency-organization-extension">
                  <valueReference>
                     <reference value="urn:uuid:463b539c-55aa-41f6-8b6d-44f283e12e9a"/>
                  </valueReference>
               </extension>
            </publisher>
            <jurisdiction>
               <extension url="http://hl7.org/fhir/us/ecr/StructureDefinition/rr-location-relevance-extension">
                  <valueCodeableConcept>
                     <coding>
                        <system value="http://terminology.hl7.org/CodeSystem/v3-NullFlavor"/>
                        <code value="NI"/>
                        <display value="NoInformation"/>
                     </coding>
                  </valueCodeableConcept>
               </extension>
               <extension url="http://hl7.org/fhir/us/ecr/StructureDefinition/rr-routing-entity-organization-extension">
                  <valueReference>
                     <reference value="urn:uuid:635b3691-55a7-40c8-b9c2-821a65b2ba43"/>
                  </valueReference>
               </extension>
               <extension url="http://hl7.org/fhir/us/ecr/StructureDefinition/rr-responsible-agency-organization-extension">
                  <valueReference>
                     <reference value="urn:uuid:9ada2e9f-d59b-447b-bb57-72493a64f501"/>
                  </valueReference>
               </extension>
               <coding>
                  <system value="urn:iso:std:iso:3166"/>
                  <code value="US"/>
                  <display value="United States of America"/>
               </coding>
            </jurisdiction>
            <goal>
               <description>
                  <text value="Reportability Feedback"/>
               </description>
               <addresses>
                  <coding>
                     <system value="http://snomed.info/sct"/>
                     <code value="27836007"/>
                     <display value="Pertussis (disorder)"/>
                  </coding>
               </addresses>
            </goal>
            <action>
               <documentation>
                  <extension url="http://hl7.org/fhir/us/ecr/StructureDefinition/rr-external-resource-type-extension">
                     <valueCodeableConcept>
                        <coding>
                           <system value="urn:oid:2.16.840.1.114222.4.5.274"/>
                           <code value="RRVS11"/>
                           <display value="Additional resources"/>
                        </coding>
                     </valueCodeableConcept>
                  </extension>
                  <extension url="http://hl7.org/fhir/us/ecr/StructureDefinition/rr-priority-extension">
                     <valueCodeableConcept>
                        <coding>
                           <system value="urn:oid:2.16.840.1.114222.4.5.274"/>
                           <code value="RRVS15"/>
                           <display value="Information only"/>
                        </coding>
                     </valueCodeableConcept>
                  </extension>
                  <type value="documentation"/>
                  <display value="CDC Reference Guide for Pertussis"/>
                  <url value="http://www.cdc.gov/pertussis/"/>
               </documentation>
               <timingDuration>
                  <value value="3"/>
                  <unit value="d"/>
               </timingDuration>
               <timingDuration>
                  <value value="1"/>
                  <unit value="d"/>
               </timingDuration>
               <timingDuration>
                  <value value="1"/>
                  <unit value="d"/>
               </timingDuration>
               <timingDuration>
                  <value value="3"/>
                  <unit value="d"/>
               </timingDuration>
            </action>
         </PlanDefinition>
      </resource>
   </entry>
   <entry>
      <fullUrl value="urn:uuid:f0053e2b-9431-4649-803c-c3923865c19e"/>
      <resource>
         <Organization>
            <meta>
               <profile value="http://hl7.org/fhir/us/ecr/StructureDefinition/rr-rules-authoring-agency-organization"/>
            </meta>
            <!--participant[LOC]-->
            <identifier>
               <system value="http://hl7.org/fhir/sid/us-npi"/>
               <value value="ut"/>
            </identifier>
            <active value="true"/>
            <type>
               <coding>
                  <system value="urn:oid:2.16.840.1.114222.4.5.232"/>
                  <code value="RR12"/>
                  <display value="Rules Authoring Agency"/>
               </coding>
            </type>
            <name value="Utah Department of Health"/>
            <!--Omitting null telecom-->
         </Organization>
      </resource>
   </entry>
   <entry>
      <fullUrl value="urn:uuid:d744a635-52f6-4811-829c-1157c11d1466"/>
      <resource>
         <Organization>
            <meta>
               <profile value="http://hl7.org/fhir/us/ecr/StructureDefinition/rr-routing-entity-organization"/>
            </meta>
            <!--participant[LOC]-->
            <identifier>
               <system value="http://hl7.org/fhir/sid/us-npi"/>
               <value value="ut"/>
            </identifier>
            <active value="true"/>
            <type>
               <coding>
                  <system value="urn:oid:2.16.840.1.114222.4.5.232"/>
                  <code value="RR7"/>
                  <display value="Routing Entity"/>
               </coding>
            </type>
            <name value="Utah Department of Health"/>
            <!--Omitting null telecom-->
         </Organization>
      </resource>
   </entry>
   <entry>
      <fullUrl value="urn:uuid:7c929db6-bacb-46c5-9e15-aa6948140147"/>
      <resource>
         <Organization>
            <meta>
               <profile value="http://hl7.org/fhir/us/ecr/StructureDefinition/rr-responsible-agency-organization"/>
            </meta>
            <!--participant[LOC]-->
            <identifier>
               <system value="http://hl7.org/fhir/sid/us-npi"/>
               <value value="ut"/>
            </identifier>
            <active value="true"/>
            <type>
               <coding>
                  <system value="urn:oid:2.16.840.1.114222.4.5.232"/>
                  <code value="RR8"/>
                  <display value="Responsible Agency"/>
               </coding>
            </type>
            <name value=""/>
            <!--Omitting null telecom-->
         </Organization>
      </resource>
   </entry>
   <entry>
      <fullUrl value="urn:uuid:1b9bfd9e-76b7-40a7-af4b-2eb6e562346d"/>
      <resource>
         <Organization>
            <meta>
               <profile value="http://hl7.org/fhir/us/ecr/StructureDefinition/rr-rules-authoring-agency-organization"/>
            </meta>
            <!--participant[LOC]-->
            <identifier>
               <system value="http://hl7.org/fhir/sid/us-npi"/>
               <value value="ut"/>
            </identifier>
            <active value="true"/>
            <type>
               <coding>
                  <system value="urn:oid:2.16.840.1.114222.4.5.232"/>
                  <code value="RR12"/>
                  <display value="Rules Authoring Agency"/>
               </coding>
            </type>
            <name value="Utah Department of Health"/>
            <!--Omitting null telecom-->
         </Organization>
      </resource>
   </entry>
   <entry>
      <fullUrl value="urn:uuid:a2abcda5-c28d-479d-b6b6-115d37bc7222"/>
      <resource>
         <Organization>
            <meta>
               <profile value="http://hl7.org/fhir/us/ecr/StructureDefinition/rr-routing-entity-organization"/>
            </meta>
            <!--participant[LOC]-->
            <identifier>
               <system value="http://hl7.org/fhir/sid/us-npi"/>
               <value value="ut"/>
            </identifier>
            <active value="true"/>
            <type>
               <coding>
                  <system value="urn:oid:2.16.840.1.114222.4.5.232"/>
                  <code value="RR7"/>
                  <display value="Routing Entity"/>
               </coding>
            </type>
            <name value="Utah Department of Health"/>
            <!--Omitting null telecom-->
         </Organization>
      </resource>
   </entry>
   <entry>
      <fullUrl value="urn:uuid:155def73-127b-4f64-84d5-33aa93e8ae25"/>
      <resource>
         <Organization>
            <meta>
               <profile value="http://hl7.org/fhir/us/ecr/StructureDefinition/rr-responsible-agency-organization"/>
            </meta>
            <!--participant[LOC]-->
            <identifier>
               <system value="http://hl7.org/fhir/sid/us-npi"/>
               <value value="ut"/>
            </identifier>
            <active value="true"/>
            <type>
               <coding>
                  <system value="urn:oid:2.16.840.1.114222.4.5.232"/>
                  <code value="RR8"/>
                  <display value="Responsible Agency"/>
               </coding>
            </type>
            <name value=""/>
            <!--Omitting null telecom-->
         </Organization>
      </resource>
   </entry>
   <entry>
      <fullUrl value="urn:uuid:82e54271-cc66-46c7-a56e-5f22b27e4a89"/>
      <resource>
         <Organization>
            <meta>
               <profile value="http://hl7.org/fhir/us/ecr/StructureDefinition/rr-rules-authoring-agency-organization"/>
            </meta>
            <!--participant[LOC]-->
            <identifier>
               <system value="http://hl7.org/fhir/sid/us-npi"/>
               <value value="mi"/>
            </identifier>
            <active value="true"/>
            <type>
               <coding>
                  <system value="urn:oid:2.16.840.1.114222.4.5.232"/>
                  <code value="RR12"/>
                  <display value="Rules Authoring Agency"/>
               </coding>
            </type>
            <name value="Michigan"/>
            <!--Omitting null telecom-->
         </Organization>
      </resource>
   </entry>
   <entry>
      <fullUrl value="urn:uuid:a3a5b2f1-b71e-4ddd-bc82-ec39a52ab9ad"/>
      <resource>
         <Organization>
            <meta>
               <profile value="http://hl7.org/fhir/us/ecr/StructureDefinition/rr-routing-entity-organization"/>
            </meta>
            <!--participant[LOC]-->
            <identifier>
               <system value="http://hl7.org/fhir/sid/us-npi"/>
               <value value="mi"/>
            </identifier>
            <active value="true"/>
            <type>
               <coding>
                  <system value="urn:oid:2.16.840.1.114222.4.5.232"/>
                  <code value="RR7"/>
                  <display value="Routing Entity"/>
               </coding>
            </type>
            <name value="Michigan"/>
            <!--Omitting null telecom-->
         </Organization>
      </resource>
   </entry>
   <entry>
      <fullUrl value="urn:uuid:f662bd85-59c2-4440-855b-25f511ce48ea"/>
      <resource>
         <Organization>
            <meta>
               <profile value="http://hl7.org/fhir/us/ecr/StructureDefinition/rr-responsible-agency-organization"/>
            </meta>
            <!--participant[LOC]-->
            <identifier>
               <system value="http://hl7.org/fhir/sid/us-npi"/>
               <value value="mi"/>
            </identifier>
            <active value="true"/>
            <type>
               <coding>
                  <system value="urn:oid:2.16.840.1.114222.4.5.232"/>
                  <code value="RR8"/>
                  <display value="Responsible Agency"/>
               </coding>
            </type>
            <name value=""/>
            <!--Omitting null telecom-->
         </Organization>
      </resource>
   </entry>
   <entry>
      <fullUrl value="urn:uuid:463b539c-55aa-41f6-8b6d-44f283e12e9a"/>
      <resource>
         <Organization>
            <meta>
               <profile value="http://hl7.org/fhir/us/ecr/StructureDefinition/rr-rules-authoring-agency-organization"/>
            </meta>
            <!--participant[LOC]-->
            <identifier>
               <system value="http://hl7.org/fhir/sid/us-npi"/>
               <value value="mi"/>
            </identifier>
            <active value="true"/>
            <type>
               <coding>
                  <system value="urn:oid:2.16.840.1.114222.4.5.232"/>
                  <code value="RR12"/>
                  <display value="Rules Authoring Agency"/>
               </coding>
            </type>
            <name value="Michigan"/>
            <!--Omitting null telecom-->
         </Organization>
      </resource>
   </entry>
   <entry>
      <fullUrl value="urn:uuid:635b3691-55a7-40c8-b9c2-821a65b2ba43"/>
      <resource>
         <Organization>
            <meta>
               <profile value="http://hl7.org/fhir/us/ecr/StructureDefinition/rr-routing-entity-organization"/>
            </meta>
            <!--participant[LOC]-->
            <identifier>
               <system value="http://hl7.org/fhir/sid/us-npi"/>
               <value value="mi"/>
            </identifier>
            <active value="true"/>
            <type>
               <coding>
                  <system value="urn:oid:2.16.840.1.114222.4.5.232"/>
                  <code value="RR7"/>
                  <display value="Routing Entity"/>
               </coding>
            </type>
            <name value="Michigan"/>
            <!--Omitting null telecom-->
         </Organization>
      </resource>
   </entry>
   <entry>
      <fullUrl value="urn:uuid:9ada2e9f-d59b-447b-bb57-72493a64f501"/>
      <resource>
         <Organization>
            <meta>
               <profile value="http://hl7.org/fhir/us/ecr/StructureDefinition/rr-responsible-agency-organization"/>
            </meta>
            <!--participant[LOC]-->
            <identifier>
               <system value="http://hl7.org/fhir/sid/us-npi"/>
               <value value="mi"/>
            </identifier>
            <active value="true"/>
            <type>
               <coding>
                  <system value="urn:oid:2.16.840.1.114222.4.5.232"/>
                  <code value="RR8"/>
                  <display value="Responsible Agency"/>
               </coding>
            </type>
            <name value=""/>
            <!--Omitting null telecom-->
         </Organization>
      </resource>
   </entry>
</Bundle>
