<?xml version="1.0" encoding="UTF-8"?>
<Bundle xmlns="http://hl7.org/fhir">
   <id value="bundle-eicr-document-zika"/>
   <meta>
      <profile value="http://hl7.org/fhir/us/ecr/StructureDefinition/eicr-document-bundle"/>
   </meta>
   <identifier>
      <system value="urn:ietf:rfc:3986"/>
      <value value="urn:uuid:f0d0fcfd-46de-4c4a-8829-f9a57ca7ad9f"/>
   </identifier>
   <type value="document"/>
   <timestamp value="2018-11-07T09:44:21.666-05:00"/>
   <entry>
      <fullUrl value="urn:uuid:747ef4b3-61e6-4dee-8e36-669069851760"/>
      <resource>
         <Composition>
            <meta>
               <profile value="http://hl7.org/fhir/us/ecr/StructureDefinition/eicr-composition"/>
               <!--CDA templateId: urn:hl7ii:2.16.840.1.113883.10.20.15.2:2019-04-01-->
            </meta>
            <language value="en-US"/>
            <text>
               <status value="generated"/>
               <div xmlns="http://www.w3.org/1999/xhtml" lang="en-US">
                  <table class="header_table"
                         style="border: 1pt inset #00008b; line-height: 10pt; width: 100%;">
                     <tbody>
                        <tr>
                           <td class="td_header_role_name"
                               style="width: 20%; background-color: #3399ff; padding: 0.1cm 0.2cm; vertical-align: top; background-color: #ffffcc;">
                              <span class="td_label">Document Id</span>
                           </td>
                           <td class="td_header_role_value">db734647-fc99-424c-a864-7e3cda82e704 2.16.840.1.113883.9.9.9.9.9</td>
                        </tr>
                        <tr>
                           <td class="td_header_role_name"
                               style="width: 20%; background-color: #3399ff; padding: 0.1cm 0.2cm; vertical-align: top; background-color: #ffffcc;">
                              <span class="td_label">Document Created:</span>
                           </td>
                           <td class="td_header_role_value">November 7, 2018, 09:44:21, EST </td>
                        </tr>
                     </tbody>
                  </table>
                  <table class="header_table"
                         style="border: 1pt inset #00008b; line-height: 10pt; width: 100%;">
                     <tbody><!--Author-->
                        <tr>
                           <td class="td_header_role_name"
                               style="width: 20%; background-color: #3399ff; padding: 0.1cm 0.2cm; vertical-align: top; background-color: #ffffcc;">
                              <span class="td_label">Author</span>
                           </td>
                           <td class="td_header_role_value">Registered Pharmacist, RPh, The Pharmacy Alliance Health Group</td>
                        </tr>
                        <tr>
                           <td class="td_header_role_name"
                               style="width: 20%; background-color: #3399ff; padding: 0.1cm 0.2cm; vertical-align: top; background-color: #ffffcc;">
                              <span class="td_label">Contact info</span>
                           </td>
                           <td class="td_header_role_value">1004 Pharmacy Drive<br/>Portland, OR 99123, US<br/>Tel:  +1(555)555-1004<br/>
                           </td>
                        </tr>
                     </tbody>
                  </table>
                  <table class="header_table"
                         style="border: 1pt inset #00008b; line-height: 10pt; width: 100%;">
                     <tbody><!--encompassingEncounter-->
                        <tr>
                           <td class="td_header_role_name"
                               style="width: 20%; background-color: #3399ff; padding: 0.1cm 0.2cm; vertical-align: top; background-color: #ffffcc;">
                              <span class="td_label">Encounter Id</span>
                           </td>
                           <td class="td_header_role_value">9937012 2.16.840.1.113883.19</td>
                        </tr>
                        <tr>
                           <td class="td_header_role_name"
                               style="width: 20%; background-color: #3399ff; padding: 0.1cm 0.2cm; vertical-align: top; background-color: #ffffcc;">
                              <span class="td_label">Encounter Type</span>
                           </td>
                           <td class="td_header_role_value">Ambulatory</td>
                        </tr>
                        <tr>
                           <td class="td_header_role_name"
                               style="width: 20%; background-color: #3399ff; padding: 0.1cm 0.2cm; vertical-align: top; background-color: #ffffcc;">
                              <span class="td_label">Encounter Date</span>
                           </td>
                           <td class="td_header_role_value"> From November 7, 2018 </td>
                        </tr>
                        <tr>
                           <td class="td_header_role_name"
                               style="width: 20%; background-color: #3399ff; padding: 0.1cm 0.2cm; vertical-align: top; background-color: #ffffcc;">
                              <span class="td_label">Encounter Location</span>
                           </td>
                           <td class="td_header_role_value">Good Health Hospital Facility of </td>
                        </tr>
                        <tr>
                           <td class="td_header_role_name"
                               style="width: 20%; background-color: #3399ff; padding: 0.1cm 0.2cm; vertical-align: top; background-color: #ffffcc;">
                              <span class="td_label">Responsible party</span>
                           </td>
                           <td class="td_header_role_value">Henry Seven, M.D. of Community Health and Hospitals</td>
                        </tr>
                        <tr>
                           <td class="td_header_role_name"
                               style="width: 20%; background-color: #3399ff; padding: 0.1cm 0.2cm; vertical-align: top; background-color: #ffffcc;">
                              <span class="td_label">Contact info</span>
                           </td>
                           <td class="td_header_role_value">Responsible Party 1002 Healthcare Drive<br/>Ann Arbor, MI 99999, US<br/>Tel:  +1(555)555-1003<br/>
                           </td>
                        </tr>
                     </tbody>
                  </table>
                  <table class="header_table"
                         style="border: 1pt inset #00008b; line-height: 10pt; width: 100%;">
                     <tbody>
                        <tr>
                           <td class="td_header_role_name"
                               style="width: 20%; background-color: #3399ff; padding: 0.1cm 0.2cm; vertical-align: top; background-color: #ffffcc;">
                              <span class="td_label">Document maintained by</span>
                           </td>
                           <td class="td_header_role_value">Good Health Hospital Custodian</td>
                        </tr>
                        <tr>
                           <td class="td_header_role_name"
                               style="width: 20%; background-color: #3399ff; padding: 0.1cm 0.2cm; vertical-align: top; background-color: #ffffcc;">
                              <span class="td_label">Contact info</span>
                           </td>
                           <td class="td_header_role_value">1000 Hospital Lane<br/>Ann Arbor, MI 99999, US<br/>Tel:  +1(555)555-1212<br/>
                           </td>
                        </tr>
                     </tbody>
                  </table>
               </div>
            </text>
            <extension url="http://hl7.org/fhir/StructureDefinition/composition-clinicaldocument-versionNumber">
               <valueString value="2"/>
            </extension>
            <identifier>
               <system value="urn:ietf:rfc:3986"/>
               <value value="urn:uuid:96ae4b65-b0ed-4c0c-9160-099c986f4b7f"/>
            </identifier>
            <status value="final"/>
            <type>
               <coding>
                  <system value="http://loinc.org"/>
                  <code value="55751-2"/>
                  <display value="Public Health Case Report"/>
               </coding>
            </type>
            <subject>
               <reference value="urn:uuid:3a11614e-bffc-4030-ab09-90c9d5eebdd7"/>
            </subject>
            <encounter>
               <reference value="urn:uuid:aa44d271-f67c-41fa-9035-88c27ae19d20"/>
            </encounter>
            <date value="2018-11-07T09:44:21.666-05:00"/>
            <author>
               <reference value="urn:uuid:9d8db443-b77b-4bc7-b0b2-b3403dc537d2"/>
            </author>
            <title value="Initial Public Health Case Report"/>
            <confidentiality value="N"/>
            <custodian>
               <reference value="urn:uuid:fad00e1b-3069-4359-9562-bce7a0170f3c"/>
            </custodian>
            <relatesTo>
               <code value="transforms"/>
               <targetIdentifier>
                  <system value="urn:oid:2.16.840.1.113883.9.9.9.9.9"/>
                  <value value="db734647-fc99-424c-a864-7e3cda82e704"/>
               </targetIdentifier>
            </relatesTo>
            <section>
               <title value="Plan of Treatment"/>
               <code>
                  <coding>
                     <system value="http://loinc.org"/>
                     <code value="18776-5"/>
                     <display value="Plan of care note"/>
                  </coding>
               </code>
               <text>
                  <status value="generated"/>
                  <div xmlns="http://www.w3.org/1999/xhtml">
                     <table>
                        <thead>
                           <tr>
                              <th>Initial Case Report Trigger<br/>Code Lab Test Order</th>
                              <th>Trigger Code</th>
                              <th>Trigger Code codeSystem</th>
                              <th>RCTC OID</th>
                              <th>RCTC Version</th>
                              <th>Ordered Date</th>
                           </tr>
                        </thead>
                        <tbody>
                           <tr>
                              <td>Zika virus envelope E gene [Presence] in Serum by NAA with probe detection</td>
                              <td>80825-3</td>
                              <td>LOINC</td>
                              <td>2.16.840.1.114222.4.11.7508</td>
                              <td>19/05/2018</td>
                              <td>NOV 8, 2018</td>
                           </tr>
                        </tbody>
                     </table>
                  </div>
               </text>
               <!--2.16.840.1.113883.10.20.22.4.44-->
               <!--2.16.840.1.113883.10.20.22.4.44:2014-06-09-->
               <!--2.16.840.1.113883.10.20.15.2.3.4:2019-04-01-->
               <entry>
                  <extension url="http://hl7.org/fhir/us/ecr/StructureDefinition/eicr-trigger-code-flag-extension">
                     <extension url="triggerCodeValueSet">
                        <valueOid value="urn:oid:2.16.840.1.114222.4.11.7508"/>
                     </extension>
                     <extension url="triggerCodeValueSetVersion">
                        <valueString value="12/12/2018"/>
                     </extension>
                     <extension url="triggerCode">
                        <valueCoding>
                           <system value="http://loinc.org"/>
                           <code value="80825-3"/>
                           <display value="Zika virus envelope E gene [Presence] in Serum by NAA with probe detection"/>
                        </valueCoding>
                     </extension>
                  </extension>
                  <reference value="urn:uuid:4a968719-f5fc-42b2-b2e5-7db999a80c7b"/>
               </entry>
            </section>
            <section>
               <title value="History of Present Illness"/>
               <code>
                  <coding>
                     <system value="http://loinc.org"/>
                     <code value="10164-2"/>
                     <display value="History of Present illness Narrative"/>
                  </coding>
               </code>
               <text>
                  <status value="generated"/>
                  <div xmlns="http://www.w3.org/1999/xhtml">
                     <p> Persistent Cough REPORTED starting on 2018/10/05<br/> Whooping Respiration not reported<br/> Paroxysms Of
                            Coughing REPORTED starting on 2018/11/04<br/> Post-tussive vomiting not reported<br/>
                     </p>
                  </div>
               </text>
            </section>
            <section>
               <title value="Medications Administered"/>
               <code>
                  <coding>
                     <system value="http://loinc.org"/>
                     <code value="29549-3"/>
                     <display value="Medication administered Narrative"/>
                  </coding>
               </code>
               <text>
                  <status value="generated"/>
                  <div xmlns="http://www.w3.org/1999/xhtml">
                     <table>
                        <thead>
                           <tr>
                              <th>Medication</th>
                              <th>Dose</th>
                              <th>Duration</th>
                              <th>Route</th>
                           </tr>
                        </thead>
                        <tbody>
                           <tr>
                              <td>Azithromycin 500 MG Oral Tablet</td>
                              <td>1 g</td>
                              <td>NOV 7, 2018 11:60</td>
                              <td>ORAL</td>
                           </tr>
                        </tbody>
                     </table>
                  </div>
               </text>
               <!--2.16.840.1.113883.10.20.22.4.16-->
               <!--2.16.840.1.113883.10.20.22.4.16:2014-06-09-->
               <entry>
                  <extension url="http://hl7.org/fhir/us/ecr/StructureDefinition/eicr-trigger-code-flag-extension">
                     <extension url="triggerCodeValueSet">
                        <valueOid value="urn:oid:2.16.840.1.114222.4.11.7508"/>
                     </extension>
                     <extension url="triggerCodeValueSetVersion">
                        <valueString value="12/12/2018"/>
                     </extension>
                     <extension url="triggerCode">
                        <valueCoding>
                           <system value="http://www.nlm.nih.gov/research/umls/rxnorm"/>
                           <code value="248656"/>
                           <display value="Azithromycin 500 MG Oral Tablet"/>
                        </valueCoding>
                     </extension>
                  </extension>
                  <reference value="urn:uuid:abcc623d-09c7-4147-a643-0134c70233c1"/>
               </entry>
            </section>
            <section>
               <title value="Problems"/>
               <code>
                  <coding>
                     <system value="http://loinc.org"/>
                     <code value="11450-4"/>
                     <display value="Problem list - Reported"/>
                  </coding>
               </code>
               <text>
                  <status value="generated"/>
                  <div xmlns="http://www.w3.org/1999/xhtml">
                     <table>
                        <thead>
                           <tr>
                              <th>Concern</th>
                              <th>Concern Status</th>
                              <th>Date(s)</th>
                           </tr>
                        </thead>
                        <tbody>
                           <tr>
                              <td>Problem</td>
                              <td>active</td>
                              <td>NOV 7, 2018</td>
                           </tr>
                           <tr>
                              <td colspan="20">
                                 <ul>
                                    <li>
                                       <table>
                                          <thead>
                                             <tr>
                                                <th>Problem Type</th>
                                                <th>Problem</th>
                                                <th>Date(s)</th>
                                             </tr>
                                          </thead>
                                          <tbody>
                                             <tr>
                                                <td>Symptom</td>
                                                <td>Dark stools (finding)</td>
                                                <td>NOV 1, 2018</td>
                                             </tr>
                                             <tr>
                                                <td>Complaint</td>
                                                <td>Paroxysmal cough (finding)</td>
                                                <td>NOV 4, 2018</td>
                                             </tr>
                                          </tbody>
                                       </table>
                                    </li>
                                 </ul>
                              </td>
                           </tr>
                        </tbody>
                     </table>
                     <table>
                        <thead>
                           <tr>
                              <th>Concern</th>
                              <th>Concern Status</th>
                              <th>Date(s)</th>
                           </tr>
                        </thead>
                        <tbody>
                           <tr>
                              <td>Problem</td>
                              <td>active</td>
                              <td>MAY 23, 2018</td>
                           </tr>
                        </tbody>
                     </table>
                  </div>
               </text>
               <!--2.16.840.1.113883.10.20.22.4.4-->
               <!--2.16.840.1.113883.10.20.22.4.4:2015-08-01-->
               <entry>
                  <reference value="urn:uuid:37c8d537-6145-4fea-be17-ae062ee41bc4"/>
               </entry>
               <!--2.16.840.1.113883.10.20.22.4.4-->
               <!--2.16.840.1.113883.10.20.22.4.4:2015-08-01-->
               <entry>
                  <reference value="urn:uuid:fc19a595-b30f-43ff-abca-8e23f516c484"/>
               </entry>
               <!--2.16.840.1.113883.10.20.22.4.4-->
               <!--2.16.840.1.113883.10.20.22.4.4:2015-08-01-->
               <entry>
                  <reference value="urn:uuid:49483109-78ca-4ea6-8e5b-97457747f534"/>
               </entry>
               <!--2.16.840.1.113883.10.20.22.4.4-->
               <!--2.16.840.1.113883.10.20.22.4.4:2015-08-01-->
               <entry>
                  <reference value="urn:uuid:87e16c5b-df42-444c-8118-e02934217c55"/>
               </entry>
            </section>
            <section>
               <title value="Reason for Visit"/>
               <code>
                  <coding>
                     <system value="http://loinc.org"/>
                     <code value="29299-5"/>
                     <display value="Reason for visit"/>
                  </coding>
               </code>
               <text>
                  <status value="generated"/>
                  <div xmlns="http://www.w3.org/1999/xhtml">
                     <p>Dark stools</p>
                  </div>
               </text>
            </section>
            <section>
               <title value="Results"/>
               <code>
                  <coding>
                     <system value="http://loinc.org"/>
                     <code value="30954-2"/>
                     <display value="Relevant diagnostic tests/laboratory data Narrative"/>
                  </coding>
               </code>
               <text>
                  <status value="generated"/>
                  <div xmlns="http://www.w3.org/1999/xhtml">
                     <table>
                        <thead>
                           <tr>
                              <th>Results Panel</th>
                              <th>Date(s)</th>
                           </tr>
                        </thead>
                        <tbody>
                           <tr>
                              <td>CBC W Auto Differential panel in Blood</td>
                              <td>NOV 7, 2018 to NOV 7, 2018</td>
                           </tr>
                           <tr>
                              <td colspan="20">
                                 <ul>
                                    <li>
                                       <table>
                                          <thead>
                                             <tr>
                                                <th>Test</th>
                                                <th>Outcome</th>
                                                <th>Interpretation</th>
                                                <th>Date(s)</th>
                                                <th>Reference Range</th>
                                                <th>Reference Range Interpretation</th>
                                                <th>Reference Range Description</th>
                                             </tr>
                                          </thead>
                                          <tbody>
                                             <tr>
                                                <td>Hematocrit</td>
                                                <td>35.3 %</td>
                                                <td>Low</td>
                                                <td>NOV 7, 2018</td>
                                                <td>34.9 % to 44.5 %</td>
                                                <td>Low</td>
                                                <td>Low</td>
                                             </tr>
                                             <tr>
                                                <td>Lymphocytes [#/​volume] in Blood by Automated count</td>
                                                <td>5.2 10*3/uL</td>
                                                <td>High</td>
                                                <td>NOV 7, 2018</td>
                                                <td>1.0 10*3/uL to 4.8 10*3/uL</td>
                                                <td>Normal</td>
                                                <td/>
                                             </tr>
                                          </tbody>
                                       </table>
                                    </li>
                                 </ul>
                              </td>
                           </tr>
                        </tbody>
                     </table>
                     <table>
                        <thead>
                           <tr>
                              <th>Results Panel</th>
                              <th>Date(s)</th>
                           </tr>
                        </thead>
                        <tbody>
                           <tr>
                              <td>Bordetella pertussis Ab<br/>[Units/volume] in Serum</td>
                              <td>NOV 7, 2018 to NOV 7, 2018</td>
                           </tr>
                           <tr>
                              <td colspan="20">
                                 <ul>
                                    <li>
                                       <table>
                                          <thead>
                                             <tr>
                                                <th>Initial Case Report Trigger<br/>Code Result Observation </th>
                                                <th>Trigger Code</th>
                                                <th>Trigger Code codeSystem</th>
                                                <th>RCTC OID</th>
                                                <th>RCTC Version</th>
                                                <th>Outcome</th>
                                                <th>Interpretation</th>
                                                <th>Date(s)</th>
                                                <th>Reference Range</th>
                                                <th>Reference Range Interpretation</th>
                                             </tr>
                                          </thead>
                                          <tbody>
                                             <tr>
                                                <td>Bordetella pertussis Ab<br/>[Units/volume] in Serum</td>
                                                <td>11585-7</td>
                                                <td>LOINC</td>
                                                <td>2.16.840.1.114222.4.11.7508</td>
                                                <td>19/05/2018</td>
                                                <td>100 [iU]/mL</td>
                                                <td>High</td>
                                                <td>NOV 7, 2018</td>
                                                <td> to 45 [iU]/mL</td>
                                                <td>Normal</td>
                                             </tr>
                                          </tbody>
                                       </table>
                                    </li>
                                 </ul>
                              </td>
                           </tr>
                        </tbody>
                     </table>
                     <table>
                        <thead>
                           <tr>
                              <th>Results Panel</th>
                              <th>Date(s)</th>
                           </tr>
                        </thead>
                        <tbody>
                           <tr>
                              <td>Bordetella pertussis [Presence]<br/>in Throat by Organism specific culture</td>
                              <td>NOV 7, 2018 to NOV 7, 2018</td>
                           </tr>
                           <tr>
                              <td colspan="20">
                                 <ul>
                                    <li>
                                       <table>
                                          <thead>
                                             <tr>
                                                <th>Initial Case Report Trigger Code Result Observation </th>
                                                <th>Trigger Code</th>
                                                <th>Trigger Code codeSystem</th>
                                                <th>RCTC OID</th>
                                                <th>RCTC Version</th>
                                                <th>Outcome</th>
                                                <th>Trigger Code</th>
                                                <th>Trigger Code codeSystem</th>
                                                <th>RCTC OID</th>
                                                <th>RCTC Version</th>
                                                <th>Interpretation</th>
                                                <th>Date(s)</th>
                                             </tr>
                                          </thead>
                                          <tbody>
                                             <tr>
                                                <td>Bordetella pertussis [Presence]<br/>in Throat by Organism specific culture</td>
                                                <td>548-8</td>
                                                <td>LOINC</td>
                                                <td>2.16.840.1.114222.4.11.7508</td>
                                                <td>19/05/2018</td>
                                                <td>Bordetella pertussis (organism)</td>
                                                <td>5247005</td>
                                                <td>SNOMED CT</td>
                                                <td>2.16.840.1.114222.4.11.7508</td>
                                                <td>19/05/2018</td>
                                                <td>Abnormal</td>
                                                <td>NOV 7, 2018</td>
                                             </tr>
                                          </tbody>
                                       </table>
                                    </li>
                                 </ul>
                              </td>
                           </tr>
                        </tbody>
                     </table>
                  </div>
               </text>
               <!--2.16.840.1.113883.10.20.22.4.1-->
               <!--2.16.840.1.113883.10.20.22.4.1:2015-08-01-->
               <!--2.16.840.1.113883.10.20.15.2.3.35:2019-04-01-->
               <entry>
                  <extension url="http://hl7.org/fhir/us/ecr/StructureDefinition/eicr-trigger-code-flag-extension">
                     <extension url="triggerCodeValueSet">
                        <valueOid value="urn:oid:2.16.840.1.114222.4.11.7508"/>
                     </extension>
                     <extension url="triggerCodeValueSetVersion">
                        <valueString value="12/12/2018"/>
                     </extension>
                     <extension url="triggerCode">
                        <valueCoding>
                           <system value="http://loinc.org"/>
                           <code value="57021-8"/>
                           <display value="CBC W Auto Diff Bld"/>
                        </valueCoding>
                     </extension>
                  </extension>
                  <reference value="urn:uuid:470903fa-43dc-4334-80f1-4fe3b501238c"/>
               </entry>
               <!--2.16.840.1.113883.10.20.22.4.1-->
               <!--2.16.840.1.113883.10.20.22.4.1:2015-08-01-->
               <entry>
                  <extension url="http://hl7.org/fhir/us/ecr/StructureDefinition/eicr-trigger-code-flag-extension">
                     <extension url="triggerCodeValueSet">
                        <valueOid value="urn:oid:2.16.840.1.114222.4.11.7508"/>
                     </extension>
                     <extension url="triggerCodeValueSetVersion">
                        <valueString value="12/12/2018"/>
                     </extension>
                     <extension url="triggerCode">
                        <valueCoding>
                           <system value="http://loinc.org"/>
                           <code value="11585-7"/>
                           <display value="Bordetella pertussis Ab [Units/volume] in Serum"/>
                        </valueCoding>
                     </extension>
                  </extension>
                  <reference value="urn:uuid:5885385e-9cfb-4284-87e9-df5f951c2294"/>
               </entry>
               <!--2.16.840.1.113883.10.20.22.4.1-->
               <!--2.16.840.1.113883.10.20.22.4.1:2015-08-01-->
               <entry>
                  <extension url="http://hl7.org/fhir/us/ecr/StructureDefinition/eicr-trigger-code-flag-extension">
                     <extension url="triggerCodeValueSet">
                        <valueOid value="urn:oid:2.16.840.1.114222.4.11.7508"/>
                     </extension>
                     <extension url="triggerCodeValueSetVersion">
                        <valueString value="12/12/2018"/>
                     </extension>
                     <extension url="triggerCode">
                        <valueCoding>
                           <system value="http://loinc.org"/>
                           <code value="548-8"/>
                           <display value="Bordetella pertussis [Presence] in Throat by Organism specific culture"/>
                        </valueCoding>
                     </extension>
                  </extension>
                  <extension url="http://hl7.org/fhir/us/ecr/StructureDefinition/eicr-trigger-code-flag-extension">
                     <extension url="triggerCodeValueSet">
                        <valueOid value="urn:oid:2.16.840.1.114222.4.11.7508"/>
                     </extension>
                     <extension url="triggerCodeValueSetVersion">
                        <valueString value="12/12/2018"/>
                     </extension>
                     <extension url="triggerCode">
                        <valueCoding>
                           <system value="http://snomed.info/sct"/>
                           <code value="5247005"/>
                           <display value="Bordetella pertussis (organism)"/>
                        </valueCoding>
                     </extension>
                  </extension>
                  <reference value="urn:uuid:305276d9-a1a8-48d4-a243-bcc2404f0d24"/>
               </entry>
            </section>
            <section>
               <title value="Immunizations"/>
               <code>
                  <coding>
                     <system value="http://loinc.org"/>
                     <code value="11369-6"/>
                     <display value="Hx of Immunization"/>
                  </coding>
               </code>
               <text>
                  <status value="additional"/>
                  <div xmlns="http://www.w3.org/1999/xhtml">
                     <table>
                        <thead>
                           <tr>
                              <th>Immunization</th>
                              <th>Immunization Date</th>
                           </tr>
                        </thead>
                        <tbody>
                           <tr>
                              <td>diphtheria, tetanus toxoids and acellular<br/>pertussis vaccine, 5 pertussis antigens</td>
                              <td>NOV 11, 2018</td>
                           </tr>
                        </tbody>
                     </table>
                     <table>
                        <thead>
                           <tr>
                              <th>Initial Case Report Trigger Code<br/>Immunization Medication Activity</th>
                              <th>Immunization Date</th>
                              <th>Trigger<br/>Code</th>
                              <th>Trigger Code<br/>codeSystem</th>
                              <th>RCTC OID</th>
                              <th>RCTC<br/>Version</th>
                           </tr>
                        </thead>
                        <tbody>
                           <tr>
                              <td>influenza, unspecified formulation</td>
                              <td>NOV 11, 2018</td>
                              <td>88</td>
                              <td>CVX</td>
                              <td>2.16.840.1.114222.4.11.7508</td>
                              <td>19/05/2018</td>
                           </tr>
                        </tbody>
                     </table>
                  </div>
               </text>
               <!--2.16.840.1.113883.10.20.22.4.52:2015-08-01-->
               <entry>
                  <reference value="urn:uuid:e8a85b78-96a5-4034-9abd-afd371937bb9"/>
               </entry>
               <!--2.16.840.1.113883.10.20.22.4.52:2015-08-01-->
               <entry>
                  <extension url="http://hl7.org/fhir/us/ecr/StructureDefinition/eicr-trigger-code-flag-extension">
                     <extension url="triggerCodeValueSet">
                        <valueOid value="urn:oid:2.16.840.1.114222.4.11.7508"/>
                     </extension>
                     <extension url="triggerCodeValueSetVersion">
                        <valueString value="12/12/2018"/>
                     </extension>
                     <extension url="triggerCode">
                        <valueCoding>
                           <system value="http://hl7.org/fhir/sid/cvx"/>
                           <code value="88"/>
                           <display value="influenza, unspecified formulation"/>
                        </valueCoding>
                     </extension>
                  </extension>
                  <reference value="urn:uuid:11e2b384-3780-4fb5-b0ac-b0afbfc92929"/>
               </entry>
            </section>
            <section>
               <title value="Social History"/>
               <code>
                  <coding>
                     <system value="http://loinc.org"/>
                     <code value="29762-2"/>
                     <display value="Social history Narrative"/>
                  </coding>
               </code>
               <text>
                  <status value="additional"/>
                  <div xmlns="http://www.w3.org/1999/xhtml">
                     <table>
                        <thead>
                           <tr>
                              <th>Birth Sex</th>
                              <th>Value</th>
                              <th>Date</th>
                           </tr>
                        </thead>
                        <tbody>
                           <tr>
                              <td>Sex Assigned At Birth</td>
                              <td>Female</td>
                              <td>NOV 24, 1974</td>
                           </tr>
                        </tbody>
                     </table>
                     <table>
                        <thead>
                           <tr>
                              <th>Gender identity</th>
                              <th>Date</th>
                           </tr>
                        </thead>
                        <tbody>
                           <tr>
                              <td>Female-to-male transsexual (finding)</td>
                              <td>JAN 1, 2018</td>
                           </tr>
                        </tbody>
                     </table>
                     <table>
                        <thead>
                           <tr>
                              <th>Characteristics of Home Environment</th>
                              <th>Date</th>
                           </tr>
                        </thead>
                        <tbody>
                           <tr>
                              <td>Homeless</td>
                              <td>NOV 9, 2018</td>
                           </tr>
                        </tbody>
                     </table>
                     <table>
                        <thead>
                           <tr>
                              <th>Current Occupation</th>
                              <th>Current Industry</th>
                              <th>Current Job Title</th>
                              <th>Current Employer</th>
                           </tr>
                        </thead>
                        <tbody>
                           <tr>
                              <td>Actuaries</td>
                              <td>Accounting, tax preparation, bookkeeping, and payroll services</td>
                              <td>Senior Accountant</td>
                              <td>CDC, Peachtree St, Ann Arbor Georgia, 555-1212</td>
                           </tr>
                        </tbody>
                     </table>
                     <table>
                        <thead>
                           <tr>
                              <th>Usual Occupation</th>
                              <th>Usual Industry</th>
                              <th>Occupational Exposure</th>
                           </tr>
                        </thead>
                        <tbody>
                           <tr>
                              <td>Actuaries</td>
                              <td>Accounting, tax preparation, bookkeeping, and payroll services</td>
                              <td>Asbestos</td>
                           </tr>
                        </tbody>
                     </table>
                     <table>
                        <thead>
                           <tr>
                              <th>Travel History: Date(s)</th>
                              <th>Notes</th>
                              <th>Location</th>
                           </tr>
                        </thead>
                        <tbody>
                           <tr>
                              <td>1999 to 2007</td>
                              <td>Spent 8 years in the UK during the BSE outbreak</td>
                              <td/>
                           </tr>
                           <tr>
                              <td>In the 3 weeks before NOV 9, 2018</td>
                              <td/>
                              <td>
                                 <ul>
                                    <li>Brazil</li>
                                 </ul>
                              </td>
                           </tr>
                           <tr>
                              <td>APR 25, 2018 to APR 30, 2018</td>
                              <td/>
                              <td>
                                 <ul>
                                    <li>Nadi, FJ</li>
                                 </ul>
                              </td>
                           </tr>
                           <tr>
                              <td>MAY 6, 2018 to MAY 15, 2018</td>
                              <td/>
                              <td>
                                 <ul>
                                    <li>Montreal, QC, CA</li>
                                 </ul>
                              </td>
                           </tr>
                           <tr>
                              <td>JUL 13, 2018 to JUL 15, 2018</td>
                              <td/>
                              <td>
                                 <ul>
                                    <li>Sydney, NSW, AU</li>
                                 </ul>
                              </td>
                           </tr>
                           <tr>
                              <td>OCT 22, 2018 to OCT 30, 2018</td>
                              <td/>
                              <td>
                                 <ul>
                                    <li>1170 N Rancho Robles Rd Oracle, AZ8562, US</li>
                                 </ul>
                              </td>
                           </tr>
                        </tbody>
                     </table>
                  </div>
               </text>
               <!--2.16.840.1.113883.10.20.22.4.109-->
               <entry>
                  <reference value="urn:uuid:1c3246df-d9dc-493c-97e3-c0f1fe880458"/>
               </entry>
               <!--2.16.840.1.113883.10.20.15.2.3.1:2016-12-01-->
               <entry>
                  <reference value="urn:uuid:32d22978-6367-4286-b5e8-de0f22228b63"/>
               </entry>
               <!--2.16.840.1.113883.10.20.15.2.3.1:2016-12-01-->
               <entry>
                  <reference value="urn:uuid:93410715-4433-464e-a65c-5d09834eb2e8"/>
               </entry>
               <!--2.16.840.1.113883.10.20.15.2.3.1:2016-12-01-->
               <entry>
                  <reference value="urn:uuid:2d895443-6457-4d72-b6cb-5ab04da3605d"/>
               </entry>
               <!--2.16.840.1.113883.10.20.15.2.3.1:2016-12-01-->
               <entry>
                  <reference value="urn:uuid:f3115c7d-2868-4b76-bf40-64d7dd6847f5"/>
               </entry>
               <!--2.16.840.1.113883.10.20.15.2.3.1:2016-12-01-->
               <entry>
                  <reference value="urn:uuid:007b7404-4127-42eb-a61c-3259dbb1859a"/>
               </entry>
               <!--2.16.840.1.113883.10.20.15.2.3.1:2016-12-01-->
               <entry>
                  <reference value="urn:uuid:63a83f90-af34-4309-9bac-039a3a4d87ff"/>
               </entry>
               <!--2.16.840.1.113883.10.20.22.4.221:2017-11-30-->
               <entry>
                  <reference value="urn:uuid:f25ae238-23b8-4d92-aabc-ccd87a8c5617"/>
               </entry>
               <!--2.16.840.1.113883.10.20.22.4.217:2017-11-30-->
               <entry>
                  <reference value="urn:uuid:d069a6f9-6dc6-4e2a-ae44-b3eb595f5404"/>
               </entry>
            </section>
            <section>
               <title value="Pregnancy Section"/>
               <code>
                  <coding>
                     <system value="http://loinc.org"/>
                     <code value="90767-5"/>
                     <display value="Pregnancy summary Document"/>
                  </coding>
               </code>
               <text>
                  <status value="generated"/>
                  <div xmlns="http://www.w3.org/1999/xhtml">
                     <table>
                        <thead>
                           <tr>
                              <th>Pregnancy Status</th>
                              <th>Date(s) over which status holds<br/>(if no high date, status was<br/>current at time of recording)</th>
                              <th>Determination Method</th>
                              <th>Determination Date</th>
                              <th>Recorded Date</th>
                           </tr>
                        </thead>
                        <tbody>
                           <tr>
                              <td>Pregnant</td>
                              <td>AUG 26, 2017</td>
                              <td>Diagnostic ultrasonography</td>
                              <td>OCT 1, 2017</td>
                              <td>OCT 1, 2017 10:35</td>
                           </tr>
                           <tr>
                              <td colspan="20">
                                 <ul>
                                    <li>
                                       <table>
                                          <thead>
                                             <tr>
                                                <th>Estimated Date of Delivery</th>
                                                <th>EDD</th>
                                                <th>EDD Determination Date</th>
                                             </tr>
                                          </thead>
                                          <tbody>
                                             <tr>
                                                <td>Delivery date estimated from ovulation date</td>
                                                <td>MAY 22, 2017</td>
                                                <td>OCT 1, 2017 10:15</td>
                                             </tr>
                                          </tbody>
                                       </table>
                                       <table>
                                          <thead>
                                             <tr>
                                                <th>Estimated Gestational Age of Pregnancy</th>
                                                <th>Days</th>
                                                <th>Determination Date</th>
                                             </tr>
                                          </thead>
                                          <tbody>
                                             <tr>
                                                <td>Gestational age Estimated from selected delivery date</td>
                                                <td>143 d</td>
                                                <td>OCT 1, 2017 10:15</td>
                                             </tr>
                                             <tr>
                                                <td colspan="20">
                                                   <ul>
                                                      <li>
                                                         <table>
                                                            <thead>
                                                               <tr>
                                                                  <th>Reference to selected delivery date</th>
                                                               </tr>
                                                            </thead>
                                                            <tbody>
                                                               <tr>
                                                                  <td>Link to referenced entry</td>
                                                               </tr>
                                                            </tbody>
                                                         </table>
                                                      </li>
                                                   </ul>
                                                </td>
                                             </tr>
                                          </tbody>
                                       </table>
                                       <table>
                                          <thead>
                                             <tr>
                                                <th>Pregnancy Outcome</th>
                                                <th>Birth Order</th>
                                                <th>Time</th>
                                                <th>Method of Delivery</th>
                                             </tr>
                                          </thead>
                                          <tbody>
                                             <tr>
                                                <td>Stillbirth (finding)</td>
                                                <td>1</td>
                                                <td>JAN 5, 2018 08:50</td>
                                                <td>Breech delivery (procedure)</td>
                                             </tr>
                                             <tr>
                                                <td>Term birth of newborn (finding)</td>
                                                <td>2</td>
                                                <td>JAN 5, 2018 10:05</td>
                                                <td>Breech delivery (procedure)</td>
                                             </tr>
                                          </tbody>
                                       </table>
                                    </li>
                                 </ul>
                              </td>
                           </tr>
                        </tbody>
                     </table>
                     <table>
                        <thead>
                           <tr>
                              <th>Last menstrual period start date</th>
                              <th>Observation Date</th>
                           </tr>
                        </thead>
                        <tbody>
                           <tr>
                              <td>AUG 1, 2017</td>
                              <td>JAN 5, 2018 10:15</td>
                           </tr>
                        </tbody>
                     </table>
                     <table>
                        <thead>
                           <tr>
                              <th>Postpartum Status</th>
                              <th>Observation date</th>
                           </tr>
                        </thead>
                        <tbody>
                           <tr>
                              <td>Mid postpartum state (finding)</td>
                              <td>JAN 5, 2018 10:15</td>
                           </tr>
                        </tbody>
                     </table>
                  </div>
               </text>
               <!--2.16.840.1.113883.10.20.15.3.8-->
               <!--2.16.840.1.113883.10.20.22.4.293:2018-04-01-->
               <entry>
                  <reference value="urn:uuid:ca2df9f6-f8fa-47ec-81b8-1ad13f179b63"/>
               </entry>
               <!--2.16.840.1.113883.10.20.30.3.34:2014-06-09-->
               <entry>
                  <reference value="urn:uuid:0b07dfec-8253-4de8-a3fb-7e02d92e13c5"/>
               </entry>
               <!--2.16.840.1.113883.10.20.22.4.285:2018-04-01-->
               <entry>
                  <reference value="urn:uuid:21e393f4-45c4-4566-bb42-804f5d479d4e"/>
               </entry>
            </section>
            <section>
               <title value="Vital Signs (Last Filed)"/>
               <code>
                  <coding>
                     <system value="http://loinc.org"/>
                     <code value="8716-3"/>
                     <display value="Vital Signs"/>
                  </coding>
               </code>
               <text>
                  <status value="generated"/>
                  <div xmlns="http://www.w3.org/1999/xhtml">
                     <table>
                        <thead>
                           <tr>
                              <th>Date</th>
                              <th>Blood Pressure</th>
                              <th>Pulse</th>
                              <th>Temperature</th>
                              <th>Respiratory Rate</th>
                              <th>Height</th>
                              <th>Weight</th>
                              <th>BMI</th>
                              <th>SpO2</th>
                           </tr>
                        </thead>
                        <tbody>
                           <tr>
                              <td>05/20/2014 7:36pm</td>
                              <td>
                                 <span>120</span>/<span>80</span>mm[Hg] </td>
                              <td>80 /min</td>
                              <td>99.0 F</td>
                              <td>18 /min</td>
                              <td>5'7 (67 inches)</td>
                              <td>239.9 lbs</td>
                              <td>37.58 kg/m2</td>
                              <td>98%</td>
                           </tr>
                        </tbody>
                     </table>
                  </div>
               </text>
               <!--2.16.840.1.113883.10.20.22.4.26-->
               <!--2.16.840.1.113883.10.20.22.4.26:2015-08-01-->
               <entry>
                  <reference value="urn:uuid:4fe88419-abbe-47be-81a2-c3ef46dc6acf"/>
               </entry>
            </section>
         </Composition>
      </resource>
   </entry>
   <entry>
      <fullUrl value="urn:uuid:3a11614e-bffc-4030-ab09-90c9d5eebdd7"/>
      <resource>
         <Patient>
            <meta>
               <profile value="http://hl7.org/fhir/us/ecr/StructureDefinition/ecr-patient"/>
               <!--CDA participant: ClinicalDocument[templateId/@root='2.16.840.1.113883.10.20.15.2']/recordTarget-->
            </meta>
            <text>
               <status value="generated"/>
               <div xmlns="http://www.w3.org/1999/xhtml">
                  <h1>Everywoman, Eve H</h1>
                  <p>Alternate name: Everywoman, Ruth L</p>
                  <p>Telecom: tel:+1-555-555-2003</p>
                  <p>Telecom: tel:+1-555-555-2004</p>
                  <p>Address: 2222 Home Street<br/>Ann Arbor<br/>MI<br/>99999<br/>26001<br/>US</p>
                  <p>Gender: F</p>
                  <p>Birthdate: 1974-11-24</p>
                  <p>Language: en</p>
               </div>
            </text>
            <extension url="http://hl7.org/fhir/us/core/StructureDefinition/us-core-race">
               <extension url="ombCategory">
                  <valueCoding>
                     <system value="urn:oid:2.16.840.1.113883.6.238"/>
                     <code value="2106-3"/>
                     <display value="White"/>
                  </valueCoding>
               </extension>
               <extension url="text">
                  <valueString value="White"/>
               </extension>
            </extension>
            <extension url="http://hl7.org/fhir/us/core/StructureDefinition/us-core-ethnicity">
               <extension url="ombCategory">
                  <valueCoding>
                     <system value="urn:oid:2.16.840.1.113883.6.238"/>
                     <code value="2186-5"/>
                     <display value="Not Hispanic or Latino"/>
                  </valueCoding>
               </extension>
               <extension url="text">
                  <valueString value="Not Hispanic or Latino"/>
               </extension>
            </extension>
            <extension url="http://hl7.org/fhir/us/core/StructureDefinition/us-core-birthsex">
               <valueCode value="F"/>
            </extension>
            <extension url="http://hl7.org/fhir/StructureDefinition/patient-genderIdentity">
               <valueCodeableConcept>
                  <coding>
                     <system value="http://snomed.info/sct"/>
                     <code value="407377005"/>
                     <display value="Female-to-male transsexual (finding)"/>
                  </coding>
               </valueCodeableConcept>
            </extension>
            <identifier>
               <system value="urn:oid:2.16.840.1.113883.19.5"/>
               <value value="123453"/>
            </identifier>
            <identifier>
               <system value="http://hl7.org/fhir/sid/us-ssn"/>
               <value value="444-22-2222"/>
            </identifier>
            <name>
               <use value="usual"/>
               <text value="Everywoman, Eve H (usual name)"/>
               <family value="Everywoman"/>
               <given value="Eve"/>
               <given value="H"/>
            </name>
            <name>
               <text value="Everywoman, Ruth L"/>
               <family value="Everywoman"/>
               <given value="Ruth"/>
               <given value="L"/>
            </name>
            <telecom>
               <system value="phone"/>
               <value value="+1-555-555-2003"/>
               <use value="home"/>
            </telecom>
            <telecom>
               <system value="phone"/>
               <value value="+1-555-555-2004"/>
               <use value="work"/>
            </telecom>
            <gender value="female"/>
            <birthDate value="1974-11-24"/>
            <deceasedDateTime value="2019-11-07T09:44:21.000-05:00"/>
            <address>
               <use value="home"/>
               <line value="2222 Home Street"/>
               <city value="Ann Arbor"/>
               <district value="26001"/>
               <state value="MI"/>
               <postalCode value="99999"/>
               <country value="US"/>
            </address>
            <contact>
               <relationship>
                  <coding>
                     <system value="http://terminology.hl7.org/CodeSystem/v3-RoleClass"/>
                     <code value="GUARD"/>
                  </coding>
               </relationship>
               <name>
                  <use value="usual"/>
                  <text value="Mum, Martha L (usual name)"/>
                  <family value="Mum"/>
                  <given value="Martha"/>
                  <given value="L"/>
               </name>
               <telecom>
                  <system value="phone"/>
                  <value value="+1-555-555-2006"/>
                  <use value="home"/>
               </telecom>
               <telecom>
                  <system value="email"/>
                  <value value="mail@guardian.com"/>
               </telecom>
               <address>
                  <use value="home"/>
                  <line value="4444 Home Street"/>
                  <city value="Ann Arbor"/>
                  <state value="MI"/>
                  <postalCode value="99999"/>
                  <country value="US"/>
               </address>
            </contact>
            <communication>
               <language>
                  <coding>
                     <code value="en"/>
                  </coding>
               </language>
               <preferred value="true"/>
            </communication>
         </Patient>
      </resource>
   </entry>
   <entry>
      <fullUrl value="urn:uuid:aa44d271-f67c-41fa-9035-88c27ae19d20"/>
      <resource>
         <Encounter>
            <meta>
               <profile value="http://hl7.org/fhir/us/ecr/StructureDefinition/eicr-encounter"/>
               <!--CDA participant: ClinicalDocument[templateId/@root='2.16.840.1.113883.10.20.15.2']/componentOf/encompassingEncounter-->
            </meta>
            <identifier>
               <system value="urn:oid:2.16.840.1.113883.19"/>
               <value value="9937012"/>
            </identifier>
            <status value="in-progress"/>
            <class>
               <system value="http://terminology.hl7.org/CodeSystem/v3-ActCode"/>
               <code value="AMB"/>
               <display value="Ambulatory"/>
            </class>
            <type>
               <coding>
                  <system value="http://www.ama-assn.org/go/cpt"/>
                  <code value="99213"/>
                  <display value="Office outpatient visit 15 minutes"/>
               </coding>
            </type>
            <subject>
               <reference value="urn:uuid:3a11614e-bffc-4030-ab09-90c9d5eebdd7"/>
            </subject>
            <participant>
               <individual>
                  <reference value="urn:uuid:45c653e8-7040-4ac8-9984-b781323c4876"/>
               </individual>
            </participant>
            <period>
               <start value="2018-11-07"/>
            </period>
            <diagnosis>
               <condition><!--2.16.840.1.113883.10.20.22.4.4--><!--2.16.840.1.113883.10.20.22.4.4:2015-08-01--><!--2.16.840.1.113883.10.20.15.2.3.3:2019-04-01-->
                  <reference value="urn:uuid:f9fa0bcc-9b94-45d9-9dce-a8e4cadfc69b"/>
               </condition>
            </diagnosis>
            <diagnosis>
               <condition><!--2.16.840.1.113883.10.20.22.4.4--><!--2.16.840.1.113883.10.20.22.4.4:2015-08-01-->
                  <reference value="urn:uuid:f3dd740b-7061-4435-88e0-865e2b71e6da"/>
               </condition>
            </diagnosis>
            <location>
               <location>
                  <reference value="urn:uuid:847ee405-8a97-4f19-a8d1-625f384dc615"/>
               </location>
            </location>
            <serviceProvider>
               <reference value="urn:uuid:2eaa2936-32e0-4551-8c9d-83ec873b598f"/>
            </serviceProvider>
         </Encounter>
      </resource>
   </entry>
   <entry>
      <fullUrl value="urn:uuid:45c653e8-7040-4ac8-9984-b781323c4876"/>
      <resource>
         <PractitionerRole>
            <meta>
               <profile value="http://hl7.org/fhir/us/ecr/StructureDefinition/ecr-practitionerrole"/>
               <!--CDA participant: ClinicalDocument[templateId/@root='2.16.840.1.113883.10.20.15.2']/componentOf/encompassingEncounter/responsibleParty/assignedEntity-->
            </meta>
            <!--responsibleParty/assignedEntity-->
            <identifier>
               <system value="http://hl7.org/fhir/sid/us-npi"/>
               <value value="6666666666666"/>
            </identifier>
            <practitioner>
               <reference value="urn:uuid:c3841393-6d54-45fb-afaa-e41e59e5f44d"/>
            </practitioner>
            <organization>
               <reference value="urn:uuid:f24d5ba4-c7e7-4391-8b07-66336fbb64d7"/>
            </organization>
            <telecom>
               <system value="phone"/>
               <value value="+1(555)555-1003"/>
               <use value="work"/>
            </telecom>
            <telecom>
               <system value="fax"/>
               <value value="+1(555)555-1234"/>
               <use value="work"/>
            </telecom>
            <telecom>
               <system value="email"/>
               <value value="mail@provider_domain.com"/>
               <use value="work"/>
            </telecom>
         </PractitionerRole>
      </resource>
   </entry>
   <entry>
      <fullUrl value="urn:uuid:c3841393-6d54-45fb-afaa-e41e59e5f44d"/>
      <resource>
         <Practitioner><!--assignedEntity[cda:id[@root="2.16.840.1.113883.4.6"]]/assignedPerson-->
            <meta>
               <profile value="http://hl7.org/fhir/us/core/StructureDefinition/us-core-practitioner"/>
            </meta>
            <text>
               <status value="generated"/>
               <div xmlns="http://www.w3.org/1999/xhtml">
                  <p>Name: Seven, Henry</p>
                  <p>---TODO: ID info---</p>
                  <p>Telephone: tel:+1(555)555-1003 fax:+1(555)555-1234 mailto:mail@provider_domain.com</p>
               </div>
            </text>
            <identifier>
               <system value="http://hl7.org/fhir/sid/us-npi"/>
               <value value="6666666666666"/>
            </identifier>
            <name>
               <text value="Seven, M.D., Henry"/>
               <family value="Seven"/>
               <given value="Henry"/>
               <suffix value="M.D."/>
            </name>
            <telecom>
               <system value="phone"/>
               <value value="+1(555)555-1003"/>
               <use value="work"/>
            </telecom>
            <telecom>
               <system value="fax"/>
               <value value="+1(555)555-1234"/>
               <use value="work"/>
            </telecom>
            <telecom>
               <system value="email"/>
               <value value="mail@provider_domain.com"/>
               <use value="work"/>
            </telecom>
            <address>
               <line value="Responsible Party 1002 Healthcare Drive"/>
               <city value="Ann Arbor"/>
               <state value="MI"/>
               <postalCode value="99999"/>
               <country value="US"/>
            </address>
         </Practitioner>
      </resource>
   </entry>
   <entry>
      <fullUrl value="urn:uuid:f24d5ba4-c7e7-4391-8b07-66336fbb64d7"/>
      <resource>
         <Organization>
            <meta>
               <profile value="http://hl7.org/fhir/us/ecr/StructureDefinition/ecr-organization"/>
               <!--CDA participant: ClinicalDocument[templateId/@root='2.16.840.1.113883.10.20.15.2']/componentOf/encompassingEncounter/responsibleParty/assignedEntity/representedOrganization-->
            </meta>
            <identifier>
               <system value="urn:ietf:rfc:3986"/>
               <value value="urn:uuid:f24d5ba4-c7e7-4391-8b07-66336fbb64d7"/>
            </identifier>
            <active value="true"/>
            <name value="Community Health and Hospitals"/>
            <telecom>
               <system value="phone"/>
               <value value="+1(555)555-1003"/>
               <use value="work"/>
            </telecom>
            <telecom>
               <system value="fax"/>
               <value value="+1(555)555-1234"/>
               <use value="work"/>
            </telecom>
            <telecom>
               <system value="email"/>
               <value value="mail@provider_domain.com"/>
               <use value="work"/>
            </telecom>
            <address>
               <line value="Responsible Party 1002 Healthcare Drive"/>
               <city value="Ann Arbor"/>
               <state value="MI"/>
               <postalCode value="99999"/>
               <country value="US"/>
            </address>
         </Organization>
      </resource>
   </entry>
   <entry>
      <fullUrl value="urn:uuid:847ee405-8a97-4f19-a8d1-625f384dc615"/>
      <resource>
         <Location>
            <meta>
               <profile value="http://hl7.org/fhir/us/ecr/StructureDefinition/ecr-location"/>
               <!--CDA participant: ClinicalDocument[templateId/@root='2.16.840.1.113883.10.20.15.2']/componentOf/encompassingEncounter/location-->
            </meta>
            <identifier>
               <system value="http://hl7.org/fhir/sid/us-npi"/>
               <value value="77777777777"/>
            </identifier>
            <name value="Good Health Hospital Facility"/>
            <type>
               <coding>
                  <system value="http://hl7.org/fhir/v3/RoleCode"/>
                  <code value="OF"/>
                  <display value="Outpatient facility"/>
               </coding>
            </type>
            <telecom>
               <system value="phone"/>
               <value value="1+(555)-555-1212"/>
               <use value="work"/>
            </telecom>
            <telecom>
               <system value="fax"/>
               <value value="1+(555)-555-3333"/>
               <use value="work"/>
            </telecom>
            <address>
               <line value="2-1000 Hospital Lane"/>
               <city value="Ann Arbor"/>
               <state value="MI"/>
               <postalCode value="99999"/>
               <country value="US"/>
            </address>
         </Location>
      </resource>
   </entry>
   <entry>
      <fullUrl value="urn:uuid:2eaa2936-32e0-4551-8c9d-83ec873b598f"/>
      <resource>
         <Organization>
            <meta>
               <profile value="http://hl7.org/fhir/us/ecr/StructureDefinition/ecr-organization"/>
               <!--CDA participant: ClinicalDocument[templateId/@root='2.16.840.1.113883.10.20.15.2']/componentOf/encompassingEncounter/location/healthCareFacility/serviceProviderOrganization-->
            </meta>
            <identifier>
               <system value="urn:ietf:rfc:3986"/>
               <value value="urn:uuid:2eaa2936-32e0-4551-8c9d-83ec873b598f"/>
            </identifier>
            <active value="true"/>
            <name value="Good Health Hospital Service Provider Organization"/>
            <telecom>
               <system value="phone"/>
               <value value="1+(555)-555-1212"/>
               <use value="work"/>
            </telecom>
            <telecom>
               <system value="fax"/>
               <value value="1+(555)-555-3333"/>
               <use value="work"/>
            </telecom>
            <address>
               <line value="1-1000 Hospital Lane"/>
               <city value="Ann Arbor"/>
               <state value="MI"/>
               <postalCode value="99999"/>
               <country value="US"/>
            </address>
         </Organization>
      </resource>
   </entry>
   <entry>
      <fullUrl value="urn:uuid:9d8db443-b77b-4bc7-b0b2-b3403dc537d2"/>
      <resource>
         <PractitionerRole><!--author/assignedAuthor-->
            <identifier>
               <system value="urn:ietf:rfc:3986"/>
               <value value="urn:uuid:ec399842-7c0d-4cfc-ada3-f11a799d0460"/>
            </identifier>
            <practitioner>
               <reference value="urn:uuid:249de24e-ba5d-4905-b950-b6c0797e4aea"/>
            </practitioner>
            <organization>
               <reference value="urn:uuid:50f6cba5-600e-4e3c-8146-40d4e98bdc97"/>
            </organization>
            <code>
               <coding>
                  <system value="http://nucc.org/provider-taxonomy"/>
                  <code value="183500000X"/>
                  <display value="Pharmacist"/>
               </coding>
            </code>
            <telecom>
               <system value="phone"/>
               <value value="+1(555)555-1004"/>
               <use value="work"/>
            </telecom>
         </PractitionerRole>
      </resource>
   </entry>
   <entry>
      <fullUrl value="urn:uuid:249de24e-ba5d-4905-b950-b6c0797e4aea"/>
      <resource>
         <Practitioner><!--assignedAuthor[cda:id[@root="ec399842-7c0d-4cfc-ada3-f11a799d0460"]]/assignedPerson-->
            <meta>
               <profile value="http://hl7.org/fhir/us/core/StructureDefinition/us-core-practitioner"/>
            </meta>
            <text>
               <status value="generated"/>
               <div xmlns="http://www.w3.org/1999/xhtml">
                  <p>Name: Pharmacist, Registered</p>
                  <p>---TODO: ID info---</p>
                  <p>Telephone: tel:+1(555)555-1004</p>
               </div>
            </text>
            <identifier>
               <system value="urn:ietf:rfc:3986"/>
               <value value="urn:uuid:ec399842-7c0d-4cfc-ada3-f11a799d0460"/>
            </identifier>
            <name>
               <text value="Pharmacist, RPh, Registered"/>
               <family value="Pharmacist"/>
               <given value="Registered"/>
               <suffix value="RPh"/>
            </name>
            <telecom>
               <system value="phone"/>
               <value value="+1(555)555-1004"/>
               <use value="work"/>
            </telecom>
            <address>
               <line value="1004 Pharmacy Drive"/>
               <city value="Portland"/>
               <state value="OR"/>
               <postalCode value="99123"/>
               <country value="US"/>
            </address>
         </Practitioner>
      </resource>
   </entry>
   <entry>
      <fullUrl value="urn:uuid:50f6cba5-600e-4e3c-8146-40d4e98bdc97"/>
      <resource>
         <Organization>
            <meta>
               <profile value="http://hl7.org/fhir/us/ecr/StructureDefinition/ecr-organization"/>
               <!--CDA participant: ClinicalDocument[templateId/@root='2.16.840.1.113883.10.20.15.2']/author/assignedAuthor/representedOrganization-->
               <profile value="http://hl7.org/fhir/us/ecr/StructureDefinition/ecr-organization"/>
               <!--CDA participant: ClinicalDocument[templateId/@root='2.16.840.1.113883.10.20.15.2']/author/assignedAuthor/representedOrganization-->
            </meta>
            <identifier>
               <system value="urn:ietf:rfc:3986"/>
               <value value="urn:oid:2.16.840.1.113883.19.5"/>
            </identifier>
            <active value="true"/>
            <name value="The Pharmacy Alliance Health Group"/>
            <telecom>
               <system value="phone"/>
               <value value="+1(555)555-1004"/>
               <use value="work"/>
            </telecom>
            <address>
               <line value="1004 Pharmacy Drive"/>
               <city value="Portland"/>
               <state value="OR"/>
               <postalCode value="99123"/>
               <country value="US"/>
            </address>
         </Organization>
      </resource>
   </entry>
   <entry>
      <fullUrl value="urn:uuid:fad00e1b-3069-4359-9562-bce7a0170f3c"/>
      <resource>
         <Organization>
            <meta>
               <profile value="http://hl7.org/fhir/us/ecr/StructureDefinition/ecr-organization"/>
               <!--CDA participant: ClinicalDocument[templateId/@root='2.16.840.1.113883.10.20.15.2']/custodian/assignedCustodian/representedCustodianOrganization-->
            </meta>
            <identifier>
               <system value="http://hl7.org/fhir/sid/us-npi"/>
               <value value="88888888"/>
            </identifier>
            <active value="true"/>
            <name value="Good Health Hospital Custodian"/>
            <telecom>
               <system value="phone"/>
               <value value="+1(555)555-1212"/>
               <use value="work"/>
            </telecom>
            <address>
               <line value="1000 Hospital Lane"/>
               <city value="Ann Arbor"/>
               <state value="MI"/>
               <postalCode value="99999"/>
               <country value="US"/>
            </address>
         </Organization>
      </resource>
   </entry>
   <entry>
      <fullUrl value="urn:uuid:4a968719-f5fc-42b2-b2e5-7db999a80c7b"/>
      <resource>
         <ServiceRequest>
            <meta>
               <profile value="http://hl7.org/fhir/us/ecr/StructureDefinition/eicr-servicerequest"/>
               <!--CDA templateId: urn:hl7ii:2.16.840.1.113883.10.20.15.2.3.4:2019-04-01-->
            </meta>
            <identifier>
               <system value="urn:ietf:rfc:3986"/>
               <value value="urn:uuid:b52bee94-c34b-4e2c-8c15-5ad9d6def205"/>
            </identifier>
            <status value="active"/>
            <intent value="order"/>
            <code>
               <coding>
                  <system value="http://loinc.org"/>
                  <code value="80825-3"/>
                  <display value="Zika virus envelope E gene [Presence] in Serum by NAA with probe detection"/>
               </coding>
            </code>
            <subject>
               <reference value="urn:uuid:3a11614e-bffc-4030-ab09-90c9d5eebdd7"/>
            </subject>
            <occurrenceDateTime value="2018-11-08"/>
         </ServiceRequest>
      </resource>
   </entry>
   <entry>
      <fullUrl value="urn:uuid:abcc623d-09c7-4147-a643-0134c70233c1"/>
      <resource>
         <MedicationAdministration>
            <meta>
               <profile value="http://hl7.org/fhir/us/core/StructureDefinition/us-core-medicationstatement"/>
               <!--CDA templateId: urn:hl7ii:2.16.840.1.113883.10.20.22.4.16:2014-06-09-->
            </meta>
            <identifier>
               <system value="urn:ietf:rfc:3986"/>
               <value value="urn:uuid:6c844c75-aa34-411c-b7bd-5e4a9f206e29"/>
            </identifier>
            <status value="active"/>
            <medicationCodeableConcept>
               <coding>
                  <system value="http://www.nlm.nih.gov/research/umls/rxnorm"/>
                  <code value="248656"/>
                  <display value="Azithromycin 500 MG Oral Tablet"/>
               </coding>
            </medicationCodeableConcept>
            <subject>
               <reference value="urn:uuid:3a11614e-bffc-4030-ab09-90c9d5eebdd7"/>
            </subject>
            <effectiveDateTime value="2018-11-07T11:15:25.000-07:00"/>
            <performer>
               <actor>
                  <reference value="urn:uuid:9d8db443-b77b-4bc7-b0b2-b3403dc537d2"/>
               </actor>
            </performer>
            <dosage>
               <route>
                  <coding>
                     <system value="http://ncimeta.nci.nih.gov"/>
                     <code value="C38288"/>
                     <display value="ORAL"/>
                  </coding>
               </route>
            </dosage>
         </MedicationAdministration>
      </resource>
   </entry>
   <entry>
      <fullUrl value="urn:uuid:37c8d537-6145-4fea-be17-ae062ee41bc4"/>
      <resource>
         <Condition>
            <meta>
               <profile value="http://hl7.org/fhir/us/core/StructureDefinition/us-core-condition"/>
               <!--CDA templateId: urn:hl7ii:2.16.840.1.113883.10.20.22.4.4:2015-08-01-->
            </meta>
            <identifier>
               <system value="urn:ietf:rfc:3986"/>
               <value value="urn:uuid:ab1791b0-5c71-11db-b0de-0800200c9a66"/>
            </identifier>
            <clinicalStatus>
               <coding>
                  <system value="http://terminology.hl7.org/CodeSystem/condition-clinical"/>
                  <code value="active"/>
               </coding>
            </clinicalStatus>
            <category>
               <coding>
                  <system value="http://loinc.org"/>
                  <code value="75325-1"/>
                  <display value="Symptom"/>
               </coding>
               <coding>
                  <system value="http://snomed.info/sct"/>
                  <code value="418799008"/>
                  <display value="Symptom"/>
               </coding>
            </category>
            <code>
               <coding>
                  <system value="http://snomed.info/sct"/>
                  <code value="35064005"/>
                  <display value="Dark stools (finding)"/>
               </coding>
            </code>
            <subject>
               <reference value="urn:uuid:3a11614e-bffc-4030-ab09-90c9d5eebdd7"/>
            </subject>
            <onsetDateTime value="2018-11-01"/>
            <asserter>
               <reference value="urn:uuid:9d8db443-b77b-4bc7-b0b2-b3403dc537d2"/>
            </asserter>
         </Condition>
      </resource>
   </entry>
   <entry>
      <fullUrl value="urn:uuid:fc19a595-b30f-43ff-abca-8e23f516c484"/>
      <resource>
         <Condition>
            <meta>
               <profile value="http://hl7.org/fhir/us/core/StructureDefinition/us-core-condition"/>
               <!--CDA templateId: urn:hl7ii:2.16.840.1.113883.10.20.22.4.4:2015-08-01-->
            </meta>
            <identifier>
               <system value="urn:ietf:rfc:3986"/>
               <value value="urn:uuid:ab1791b0-5c71-11db-b0de-0800200c9a67"/>
            </identifier>
            <clinicalStatus>
               <coding>
                  <system value="http://terminology.hl7.org/CodeSystem/condition-clinical"/>
                  <code value="active"/>
               </coding>
            </clinicalStatus>
            <category>
               <coding>
                  <system value="http://loinc.org"/>
                  <code value="75322-8"/>
                  <display value="Complaint"/>
               </coding>
               <coding>
                  <system value="http://snomed.info/sct"/>
                  <code value="409586006"/>
                  <display value="Complaint"/>
               </coding>
            </category>
            <code>
               <coding>
                  <system value="http://snomed.info/sct"/>
                  <code value="43025008"/>
                  <display value="Paroxysmal cough (finding)"/>
               </coding>
            </code>
            <subject>
               <reference value="urn:uuid:3a11614e-bffc-4030-ab09-90c9d5eebdd7"/>
            </subject>
            <onsetDateTime value="2018-11-04"/>
            <asserter>
               <reference value="urn:uuid:9d8db443-b77b-4bc7-b0b2-b3403dc537d2"/>
            </asserter>
         </Condition>
      </resource>
   </entry>
   <entry>
      <fullUrl value="urn:uuid:49483109-78ca-4ea6-8e5b-97457747f534"/>
      <resource>
         <Condition>
            <meta>
               <profile value="http://hl7.org/fhir/us/core/StructureDefinition/us-core-condition"/>
               <!--CDA templateId: urn:hl7ii:2.16.840.1.113883.10.20.22.4.4:2015-08-01-->
            </meta>
            <identifier>
               <system value="urn:ietf:rfc:3986"/>
               <value value="urn:uuid:ab1791b0-5c71-11db-b0de-0800200c9a66"/>
            </identifier>
            <clinicalStatus>
               <coding>
                  <system value="http://terminology.hl7.org/CodeSystem/condition-clinical"/>
                  <code value="active"/>
               </coding>
            </clinicalStatus>
            <category>
               <coding>
                  <system value="http://loinc.org"/>
                  <code value="75325-1"/>
                  <display value="Symptom"/>
               </coding>
               <coding>
                  <system value="http://snomed.info/sct"/>
                  <code value="418799008"/>
                  <display value="Symptom"/>
               </coding>
            </category>
            <code>
               <coding>
                  <system value="http://snomed.info/sct"/>
                  <code value="35064005"/>
                  <display value="Dark stools (finding)"/>
               </coding>
            </code>
            <subject>
               <reference value="urn:uuid:3a11614e-bffc-4030-ab09-90c9d5eebdd7"/>
            </subject>
            <onsetDateTime value="2018-11-01"/>
            <asserter>
               <reference value="urn:uuid:9d8db443-b77b-4bc7-b0b2-b3403dc537d2"/>
            </asserter>
         </Condition>
      </resource>
   </entry>
   <entry>
      <fullUrl value="urn:uuid:87e16c5b-df42-444c-8118-e02934217c55"/>
      <resource>
         <Condition>
            <meta>
               <profile value="http://hl7.org/fhir/us/core/StructureDefinition/us-core-condition"/>
               <!--CDA templateId: urn:hl7ii:2.16.840.1.113883.10.20.22.4.4:2015-08-01-->
            </meta>
            <identifier>
               <system value="urn:ietf:rfc:3986"/>
               <value value="urn:uuid:ab1791b0-5c71-11db-b0de-0800200c9a67"/>
            </identifier>
            <clinicalStatus>
               <coding>
                  <system value="http://terminology.hl7.org/CodeSystem/condition-clinical"/>
                  <code value="active"/>
               </coding>
            </clinicalStatus>
            <category>
               <coding>
                  <system value="http://loinc.org"/>
                  <code value="75322-8"/>
                  <display value="Complaint"/>
               </coding>
               <coding>
                  <system value="http://snomed.info/sct"/>
                  <code value="409586006"/>
                  <display value="Complaint"/>
               </coding>
            </category>
            <code>
               <coding>
                  <system value="http://snomed.info/sct"/>
                  <code value="43025008"/>
                  <display value="Paroxysmal cough (finding)"/>
               </coding>
            </code>
            <subject>
               <reference value="urn:uuid:3a11614e-bffc-4030-ab09-90c9d5eebdd7"/>
            </subject>
            <onsetDateTime value="2018-11-04"/>
            <asserter>
               <reference value="urn:uuid:9d8db443-b77b-4bc7-b0b2-b3403dc537d2"/>
            </asserter>
         </Condition>
      </resource>
   </entry>
   <entry>
      <fullUrl value="urn:uuid:470903fa-43dc-4334-80f1-4fe3b501238c"/>
      <resource>
         <Observation>
            <meta>
               <profile value="http://hl7.org/fhir/us/core/StructureDefinition/us-core-observationresults"/>
               <!--CDA templateId: urn:hl7ii:2.16.840.1.113883.10.20.22.4.1:2015-08-01-->
            </meta>
            <identifier>
               <system value="urn:ietf:rfc:3986"/>
               <value value="urn:uuid:7d5a02b0-67a4-11db-bd13-0800200c9a66"/>
            </identifier>
            <status value="final"/>
            <category>
               <coding>
                  <system value="http://hl7.org/fhir/observation-category"/>
                  <code value="laboratory"/>
               </coding>
            </category>
            <code>
               <coding>
                  <system value="http://loinc.org"/>
                  <code value="57021-8"/>
                  <display value="CBC W Auto Diff Bld"/>
               </coding>
            </code>
            <subject>
               <reference value="urn:uuid:3a11614e-bffc-4030-ab09-90c9d5eebdd7"/>
            </subject>
            <performer>
               <reference value="urn:uuid:9d8db443-b77b-4bc7-b0b2-b3403dc537d2"/>
            </performer>
            <hasMember><!--2.16.840.1.113883.10.20.22.4.2--><!--2.16.840.1.113883.10.20.22.4.2:2015-08-01-->
               <reference value="urn:uuid:023e9f45-5ff7-4a8e-a0e0-41c4f98f83da"/>
            </hasMember>
            <hasMember><!--2.16.840.1.113883.10.20.22.4.2--><!--2.16.840.1.113883.10.20.22.4.2:2015-08-01-->
               <reference value="urn:uuid:49ffb506-c2e2-40d9-995a-bc078c10f2c2"/>
            </hasMember>
         </Observation>
      </resource>
   </entry>
   <entry>
      <fullUrl value="urn:uuid:023e9f45-5ff7-4a8e-a0e0-41c4f98f83da"/>
      <resource>
         <Observation>
            <meta>
               <profile value="http://hl7.org/fhir/us/core/StructureDefinition/us-core-observationresults"/>
               <!--CDA templateId: urn:hl7ii:2.16.840.1.113883.10.20.22.4.2:2015-08-01-->
            </meta>
            <identifier>
               <system value="urn:ietf:rfc:3986"/>
               <value value="urn:uuid:7c0704bb-9c40-41b5-9c7d-26b2d59e234f"/>
            </identifier>
            <status value="final"/>
            <category>
               <coding>
                  <system value="http://hl7.org/fhir/observation-category"/>
                  <code value="laboratory"/>
               </coding>
            </category>
            <code>
               <coding>
                  <system value="http://loinc.org"/>
                  <code value="20570-8"/>
                  <display value="Hematocrit"/>
               </coding>
            </code>
            <subject>
               <reference value="urn:uuid:3a11614e-bffc-4030-ab09-90c9d5eebdd7"/>
            </subject>
            <effectiveDateTime value="2018-11-07"/>
            <performer>
               <reference value="urn:uuid:9d8db443-b77b-4bc7-b0b2-b3403dc537d2"/>
            </performer>
            <valueQuantity>
               <value value="35.3"/>
               <unit value="%"/>
            </valueQuantity>
            <interpretation>
               <coding>
                  <system value="http://terminology.hl7.org/CodeSystem/v3-ObservationInterpretation"/>
                  <code value="L"/>
                  <display value="Low"/>
               </coding>
            </interpretation>
            <referenceRange>
               <low>
                  <value value="34.9"/>
                  <unit value="%"/>
               </low>
               <high>
                  <value value="44.5"/>
                  <unit value="%"/>
               </high>
               <text value="Low"/>
            </referenceRange>
         </Observation>
      </resource>
   </entry>
   <entry>
      <fullUrl value="urn:uuid:49ffb506-c2e2-40d9-995a-bc078c10f2c2"/>
      <resource>
         <Observation>
            <meta>
               <profile value="http://hl7.org/fhir/us/core/StructureDefinition/us-core-observationresults"/>
               <!--CDA templateId: urn:hl7ii:2.16.840.1.113883.10.20.22.4.2:2015-08-01-->
            </meta>
            <identifier>
               <system value="urn:ietf:rfc:3986"/>
               <value value="urn:uuid:7c0704bb-9c40-41b5-9c7d-26b2d59e234g"/>
            </identifier>
            <status value="final"/>
            <category>
               <coding>
                  <system value="http://hl7.org/fhir/observation-category"/>
                  <code value="laboratory"/>
               </coding>
            </category>
            <code>
               <coding>
                  <system value="http://loinc.org"/>
                  <code value="731-0"/>
                  <display value="Lymphocytes [#/​volume] in Blood by Automated count"/>
               </coding>
            </code>
            <subject>
               <reference value="urn:uuid:3a11614e-bffc-4030-ab09-90c9d5eebdd7"/>
            </subject>
            <effectiveDateTime value="2018-11-07"/>
            <performer>
               <reference value="urn:uuid:9d8db443-b77b-4bc7-b0b2-b3403dc537d2"/>
            </performer>
            <valueQuantity>
               <value value="5.2"/>
               <unit value="10*3/uL"/>
            </valueQuantity>
            <interpretation>
               <coding>
                  <system value="http://terminology.hl7.org/CodeSystem/v3-ObservationInterpretation"/>
                  <code value="H"/>
                  <display value="High"/>
               </coding>
            </interpretation>
            <referenceRange>
               <low>
                  <value value="1.0"/>
                  <unit value="10*3/uL"/>
               </low>
               <high>
                  <value value="4.8"/>
                  <unit value="10*3/uL"/>
               </high>
            </referenceRange>
         </Observation>
      </resource>
   </entry>
   <entry>
      <fullUrl value="urn:uuid:5885385e-9cfb-4284-87e9-df5f951c2294"/>
      <resource>
         <Observation>
            <meta>
               <profile value="http://hl7.org/fhir/us/core/StructureDefinition/us-core-observationresults"/>
               <!--CDA templateId: urn:hl7ii:2.16.840.1.113883.10.20.22.4.1:2015-08-01-->
            </meta>
            <identifier>
               <system value="urn:ietf:rfc:3986"/>
               <value value="urn:uuid:a4307cb2-b3b4-4f42-be03-1d9077376f4a"/>
            </identifier>
            <status value="final"/>
            <category>
               <coding>
                  <system value="http://hl7.org/fhir/observation-category"/>
                  <code value="laboratory"/>
               </coding>
            </category>
            <code>
               <coding>
                  <system value="http://loinc.org"/>
                  <code value="11585-7"/>
                  <display value="Bordetella pertussis Ab [Units/volume] in Serum"/>
               </coding>
            </code>
            <subject>
               <reference value="urn:uuid:3a11614e-bffc-4030-ab09-90c9d5eebdd7"/>
            </subject>
            <performer>
               <reference value="urn:uuid:9d8db443-b77b-4bc7-b0b2-b3403dc537d2"/>
            </performer>
            <hasMember><!--2.16.840.1.113883.10.20.22.4.2--><!--2.16.840.1.113883.10.20.22.4.2:2015-08-01--><!--2.16.840.1.113883.10.20.15.2.3.2:2019-04-01-->
               <reference value="urn:uuid:b1cb97c4-2000-48b7-94ec-e6dac2f7732b"/>
            </hasMember>
         </Observation>
      </resource>
   </entry>
   <entry>
      <fullUrl value="urn:uuid:b1cb97c4-2000-48b7-94ec-e6dac2f7732b"/>
      <resource>
         <Observation>
            <meta>
               <profile value="http://hl7.org/fhir/us/core/StructureDefinition/us-core-observationresults"/>
               <!--CDA templateId: urn:hl7ii:2.16.840.1.113883.10.20.22.4.2:2015-08-01-->
            </meta>
            <identifier>
               <system value="urn:ietf:rfc:3986"/>
               <value value="urn:uuid:bf9c0a26-4524-4395-b3ce-100450b9c9ad"/>
            </identifier>
            <status value="final"/>
            <category>
               <coding>
                  <system value="http://hl7.org/fhir/observation-category"/>
                  <code value="laboratory"/>
               </coding>
            </category>
            <code>
               <coding>
                  <system value="http://loinc.org"/>
                  <code value="11585-7"/>
                  <display value="Bordetella pertussis Ab [Units/volume] in Serum"/>
               </coding>
            </code>
            <subject>
               <reference value="urn:uuid:3a11614e-bffc-4030-ab09-90c9d5eebdd7"/>
            </subject>
            <effectiveDateTime value="2018-11-07"/>
            <performer>
               <reference value="urn:uuid:9d8db443-b77b-4bc7-b0b2-b3403dc537d2"/>
            </performer>
            <valueQuantity>
               <value value="100"/>
               <unit value="[iU]/mL"/>
            </valueQuantity>
            <interpretation>
               <coding>
                  <system value="http://terminology.hl7.org/CodeSystem/v3-ObservationInterpretation"/>
                  <code value="H"/>
                  <display value="High"/>
               </coding>
            </interpretation>
            <referenceRange>
               <high>
                  <value value="45"/>
                  <unit value="[iU]/mL"/>
               </high>
            </referenceRange>
         </Observation>
      </resource>
   </entry>
   <entry>
      <fullUrl value="urn:uuid:305276d9-a1a8-48d4-a243-bcc2404f0d24"/>
      <resource>
         <Observation>
            <meta>
               <profile value="http://hl7.org/fhir/us/core/StructureDefinition/us-core-observationresults"/>
               <!--CDA templateId: urn:hl7ii:2.16.840.1.113883.10.20.22.4.1:2015-08-01-->
            </meta>
            <identifier>
               <system value="urn:ietf:rfc:3986"/>
               <value value="urn:uuid:a4307cb2-b3b4-4f42-be03-1d9077376f4b"/>
            </identifier>
            <status value="final"/>
            <category>
               <coding>
                  <system value="http://hl7.org/fhir/observation-category"/>
                  <code value="laboratory"/>
               </coding>
            </category>
            <code>
               <coding>
                  <system value="http://loinc.org"/>
                  <code value="548-8"/>
                  <display value="Bordetella pertussis [Presence] in Throat by Organism specific culture"/>
               </coding>
            </code>
            <subject>
               <reference value="urn:uuid:3a11614e-bffc-4030-ab09-90c9d5eebdd7"/>
            </subject>
            <performer>
               <reference value="urn:uuid:9d8db443-b77b-4bc7-b0b2-b3403dc537d2"/>
            </performer>
            <hasMember><!--2.16.840.1.113883.10.20.22.4.2--><!--2.16.840.1.113883.10.20.22.4.2:2015-08-01--><!--2.16.840.1.113883.10.20.15.2.3.2:2019-04-01-->
               <reference value="urn:uuid:c48b8578-44c6-4ec2-8de6-c7357153a244"/>
            </hasMember>
         </Observation>
      </resource>
   </entry>
   <entry>
      <fullUrl value="urn:uuid:c48b8578-44c6-4ec2-8de6-c7357153a244"/>
      <resource>
         <Observation>
            <meta>
               <profile value="http://hl7.org/fhir/us/core/StructureDefinition/us-core-observationresults"/>
               <!--CDA templateId: urn:hl7ii:2.16.840.1.113883.10.20.22.4.2:2015-08-01-->
            </meta>
            <identifier>
               <system value="urn:ietf:rfc:3986"/>
               <value value="urn:uuid:bf9c0a26-4524-4395-b3ce-100450b9c9ac"/>
            </identifier>
            <status value="preliminary"/>
            <category>
               <coding>
                  <system value="http://hl7.org/fhir/observation-category"/>
                  <code value="laboratory"/>
               </coding>
            </category>
            <code>
               <coding>
                  <system value="urn:oid:2.16.840.1.113883.1.2.3.665"/>
                  <code value="local_code_pertussis"/>
                  <display value="Bordetella pertussis in Throat by Organism specific culture"/>
               </coding>
               <coding>
                  <system value="http://loinc.org"/>
                  <code value="548-8"/>
                  <display value="Bordetella pertussis [Presence] in Throat by Organism specific culture"/>
               </coding>
            </code>
            <subject>
               <reference value="urn:uuid:3a11614e-bffc-4030-ab09-90c9d5eebdd7"/>
            </subject>
            <effectiveDateTime value="2018-11-07"/>
            <performer>
               <reference value="urn:uuid:9d8db443-b77b-4bc7-b0b2-b3403dc537d2"/>
            </performer>
            <valueCodeableConcept>
               <coding>
                  <system value="http://snomed.info/sct"/>
                  <code value="5247005"/>
                  <display value="Bordetella pertussis (organism)"/>
               </coding>
            </valueCodeableConcept>
            <interpretation>
               <coding>
                  <system value="http://terminology.hl7.org/CodeSystem/v3-ObservationInterpretation"/>
                  <code value="A"/>
                  <display value="Abnormal"/>
               </coding>
            </interpretation>
         </Observation>
      </resource>
   </entry>
   <entry>
      <fullUrl value="urn:uuid:e8a85b78-96a5-4034-9abd-afd371937bb9"/>
      <resource>
         <Immunization>
            <meta>
               <profile value="http://hl7.org/fhir/us/core/StructureDefinition/us-core-immunization"/>
               <!--CDA templateId: urn:hl7ii:2.16.840.1.113883.10.20.22.4.52:2015-08-01-->
            </meta>
            <identifier>
               <system value="urn:uuid:00000000-5CF3-EC63-0513-4A4838595787"/>
               <value value="11369-6_3-1_1.3.6.1.4.1.22812.11.2016.163.1_14168"/>
            </identifier>
            <status value="completed"/>
            <vaccineCode>
               <coding>
                  <system value="http://hl7.org/fhir/sid/cvx"/>
                  <code value="106"/>
                  <display value="diphtheria, tetanus toxoids and acellular pertussis vaccine, 5 pertussis antigens"/>
               </coding>
            </vaccineCode>
            <patient>
               <reference value="urn:uuid:3a11614e-bffc-4030-ab09-90c9d5eebdd7"/>
            </patient>
            <occurrenceDateTime value="2018-11-07"/>
            <!--Defaulting primarySource to false since this info is not in the C-CDA Immunization Activity template-->
            <primarySource value="false"/>
            <route>
               <coding>
                  <system value="http://hl7.org/fhir/v3/NullFlavor"/>
                  <code value="NI"/>
                  <display value="No Information"/>
               </coding>
            </route>
         </Immunization>
      </resource>
   </entry>
   <entry>
      <fullUrl value="urn:uuid:11e2b384-3780-4fb5-b0ac-b0afbfc92929"/>
      <resource>
         <Immunization>
            <meta>
               <profile value="http://hl7.org/fhir/us/core/StructureDefinition/us-core-immunization"/>
               <!--CDA templateId: urn:hl7ii:2.16.840.1.113883.10.20.22.4.52:2015-08-01-->
            </meta>
            <identifier>
               <system value="urn:uuid:00000000-5CF3-EC63-0513-4A4838595787"/>
               <value value="11369-6_2-1_1.3.6.1.4.1.22812.11.2016.163.1_14168"/>
            </identifier>
            <status value="completed"/>
            <vaccineCode>
               <coding>
                  <system value="http://hl7.org/fhir/sid/cvx"/>
                  <code value="88"/>
                  <display value="influenza, unspecified formulation"/>
               </coding>
            </vaccineCode>
            <patient>
               <reference value="urn:uuid:3a11614e-bffc-4030-ab09-90c9d5eebdd7"/>
            </patient>
            <occurrenceDateTime value="2018-11-07"/>
            <!--Defaulting primarySource to false since this info is not in the C-CDA Immunization Activity template-->
            <primarySource value="false"/>
            <route>
               <coding>
                  <system value="http://hl7.org/fhir/v3/NullFlavor"/>
                  <code value="NI"/>
                  <display value="No Information"/>
               </coding>
            </route>
         </Immunization>
      </resource>
   </entry>
   <entry>
      <fullUrl value="urn:uuid:1c3246df-d9dc-493c-97e3-c0f1fe880458"/>
      <resource>
         <Observation><!--Characteristics of Home Environment-->
            <meta>
               <profile value="http://hl7.org/fhir/us/ecr/StructureDefinition/characteristics-of-home-environment"/>
               <!--CDA templateId: urn:hl7ii:2.16.840.1.113883.10.20.22.4.109-->
            </meta>
            <identifier>
               <system value="urn:ietf:rfc:3986"/>
               <value value="urn:uuid:37f76c51-6411-4e1d-8a37-957fd49d2ced"/>
            </identifier>
            <status value="final"/>
            <code>
               <coding>
                  <system value="http://loinc.org"/>
                  <code value="75274-1"/>
                  <display value="Characteristics of residence"/>
               </coding>
            </code>
            <subject>
               <reference value="urn:uuid:3a11614e-bffc-4030-ab09-90c9d5eebdd7"/>
            </subject>
            <effectiveDateTime value="2018-11-09"/>
            <performer>
               <reference value="urn:uuid:9d8db443-b77b-4bc7-b0b2-b3403dc537d2"/>
            </performer>
            <valueCodeableConcept>
               <coding>
                  <system value="http://snomed.info/sct"/>
                  <code value="32911000"/>
                  <display value="Homeless (finding)"/>
               </coding>
            </valueCodeableConcept>
         </Observation>
      </resource>
   </entry>
   <entry>
      <fullUrl value="urn:uuid:32d22978-6367-4286-b5e8-de0f22228b63"/>
      <resource>
         <Observation><!--Travel History-->
            <meta>
               <profile value="http://hl7.org/fhir/us/ecr/StructureDefinition/travel-history-observation"/>
               <!--CDA templateId: urn:hl7ii:2.16.840.1.113883.10.20.15.2.3.1:2016-12-01-->
            </meta>
            <identifier>
               <system value="urn:ietf:rfc:3986"/>
               <value value="urn:uuid:79565142-eae0-4213-a3b3-b73cdf474682"/>
            </identifier>
            <status value="final"/>
            <code>
               <coding>
                  <system value="http://snomed.info/sct"/>
                  <code value="420008001"/>
                  <display value="Travel"/>
               </coding>
            </code>
            <subject>
               <reference value="urn:uuid:3a11614e-bffc-4030-ab09-90c9d5eebdd7"/>
            </subject>
            <effectivePeriod>
               <start value="1999"/>
               <end value="2007"/>
            </effectivePeriod>
            <performer>
               <reference value="urn:uuid:9d8db443-b77b-4bc7-b0b2-b3403dc537d2"/>
            </performer>
         </Observation>
      </resource>
   </entry>
   <entry>
      <fullUrl value="urn:uuid:93410715-4433-464e-a65c-5d09834eb2e8"/>
      <resource>
         <Observation><!--Travel History-->
            <meta>
               <profile value="http://hl7.org/fhir/us/ecr/StructureDefinition/travel-history-observation"/>
               <!--CDA templateId: urn:hl7ii:2.16.840.1.113883.10.20.15.2.3.1:2016-12-01-->
            </meta>
            <identifier>
               <system value="urn:ietf:rfc:3986"/>
               <value value="urn:uuid:030df1dc-1d31-4e5d-abdd-5edd0b74c5c3"/>
            </identifier>
            <status value="final"/>
            <code>
               <coding>
                  <system value="http://snomed.info/sct"/>
                  <code value="420008001"/>
                  <display value="Travel"/>
               </coding>
            </code>
            <subject>
               <reference value="urn:uuid:3a11614e-bffc-4030-ab09-90c9d5eebdd7"/>
            </subject>
            <effectivePeriod>
               <start value="2018-10-19"/>
               <end value="2018-11-09"/>
            </effectivePeriod>
            <performer>
               <reference value="urn:uuid:9d8db443-b77b-4bc7-b0b2-b3403dc537d2"/>
            </performer>
            <component>
               <code>
                  <coding>
                     <system value="http://terminology.hl7.org/CodeSystem/v3-ParticipationType"/>
                     <code value="LOC"/>
                     <display value="Location"/>
                  </coding>
               </code>
               <valueCodeableConcept>
                  <coding>
                     <system value="urn:oid:1.0.3166.1"/>
                     <code value="BRA"/>
                     <display value="Brazil"/>
                  </coding>
               </valueCodeableConcept>
            </component>
         </Observation>
      </resource>
   </entry>
   <entry>
      <fullUrl value="urn:uuid:2d895443-6457-4d72-b6cb-5ab04da3605d"/>
      <resource>
         <Observation><!--Travel History-->
            <meta>
               <profile value="http://hl7.org/fhir/us/ecr/StructureDefinition/travel-history-observation"/>
               <!--CDA templateId: urn:hl7ii:2.16.840.1.113883.10.20.15.2.3.1:2016-12-01-->
            </meta>
            <identifier>
               <system value="urn:ietf:rfc:3986"/>
               <value value="urn:uuid:b98e410c-d29a-46d8-8fc8-f55a9d3022b9"/>
            </identifier>
            <status value="final"/>
            <code>
               <coding>
                  <system value="http://snomed.info/sct"/>
                  <code value="420008001"/>
                  <display value="Travel"/>
               </coding>
            </code>
            <subject>
               <reference value="urn:uuid:3a11614e-bffc-4030-ab09-90c9d5eebdd7"/>
            </subject>
            <effectivePeriod>
               <start value="2018-04-25"/>
               <end value="2018-04-30"/>
            </effectivePeriod>
            <performer>
               <reference value="urn:uuid:9d8db443-b77b-4bc7-b0b2-b3403dc537d2"/>
            </performer>
            <component>
               <code>
                  <coding>
                     <system value="http://terminology.hl7.org/CodeSystem/v3-ParticipationType"/>
                     <code value="LOC"/>
                     <display value="Location"/>
                  </coding>
               </code>
               <valueCodeableConcept>
                  <extension url="http://hl7.org/fhir/us/ecr/StructureDefinition/travel-history-address-extension">
                     <valueAddress>
                        <city value="Nadi"/>
                        <country value="FJ"/>
                     </valueAddress>
                  </extension>
               </valueCodeableConcept>
            </component>
         </Observation>
      </resource>
   </entry>
   <entry>
      <fullUrl value="urn:uuid:f3115c7d-2868-4b76-bf40-64d7dd6847f5"/>
      <resource>
         <Observation><!--Travel History-->
            <meta>
               <profile value="http://hl7.org/fhir/us/ecr/StructureDefinition/travel-history-observation"/>
               <!--CDA templateId: urn:hl7ii:2.16.840.1.113883.10.20.15.2.3.1:2016-12-01-->
            </meta>
            <identifier>
               <system value="urn:ietf:rfc:3986"/>
               <value value="urn:uuid:b97346f7-8f9e-4c5b-97bb-df4f6e057fd4"/>
            </identifier>
            <status value="final"/>
            <code>
               <coding>
                  <system value="http://snomed.info/sct"/>
                  <code value="420008001"/>
                  <display value="Travel"/>
               </coding>
            </code>
            <subject>
               <reference value="urn:uuid:3a11614e-bffc-4030-ab09-90c9d5eebdd7"/>
            </subject>
            <effectivePeriod>
               <start value="2018-05-06"/>
               <end value="2018-05-15"/>
            </effectivePeriod>
            <performer>
               <reference value="urn:uuid:9d8db443-b77b-4bc7-b0b2-b3403dc537d2"/>
            </performer>
            <component>
               <code>
                  <coding>
                     <system value="http://terminology.hl7.org/CodeSystem/v3-ParticipationType"/>
                     <code value="LOC"/>
                     <display value="Location"/>
                  </coding>
               </code>
               <valueCodeableConcept>
                  <extension url="http://hl7.org/fhir/us/ecr/StructureDefinition/travel-history-address-extension">
                     <valueAddress>
                        <city value="Montreal"/>
                        <state value="QC"/>
                        <country value="CA"/>
                     </valueAddress>
                  </extension>
               </valueCodeableConcept>
            </component>
         </Observation>
      </resource>
   </entry>
   <entry>
      <fullUrl value="urn:uuid:007b7404-4127-42eb-a61c-3259dbb1859a"/>
      <resource>
         <Observation><!--Travel History-->
            <meta>
               <profile value="http://hl7.org/fhir/us/ecr/StructureDefinition/travel-history-observation"/>
               <!--CDA templateId: urn:hl7ii:2.16.840.1.113883.10.20.15.2.3.1:2016-12-01-->
            </meta>
            <identifier>
               <system value="urn:ietf:rfc:3986"/>
               <value value="urn:uuid:1d957c2a-6133-427d-a6cc-26f132773b86"/>
            </identifier>
            <status value="final"/>
            <code>
               <coding>
                  <system value="http://snomed.info/sct"/>
                  <code value="420008001"/>
                  <display value="Travel"/>
               </coding>
            </code>
            <subject>
               <reference value="urn:uuid:3a11614e-bffc-4030-ab09-90c9d5eebdd7"/>
            </subject>
            <effectivePeriod>
               <start value="2018-07-13"/>
               <end value="2018-07-15"/>
            </effectivePeriod>
            <performer>
               <reference value="urn:uuid:9d8db443-b77b-4bc7-b0b2-b3403dc537d2"/>
            </performer>
            <component>
               <code>
                  <coding>
                     <system value="http://terminology.hl7.org/CodeSystem/v3-ParticipationType"/>
                     <code value="LOC"/>
                     <display value="Location"/>
                  </coding>
               </code>
               <valueCodeableConcept>
                  <extension url="http://hl7.org/fhir/us/ecr/StructureDefinition/travel-history-address-extension">
                     <valueAddress>
                        <city value="Sydney"/>
                        <state value="NSW"/>
                        <country value="AU"/>
                     </valueAddress>
                  </extension>
               </valueCodeableConcept>
            </component>
         </Observation>
      </resource>
   </entry>
   <entry>
      <fullUrl value="urn:uuid:63a83f90-af34-4309-9bac-039a3a4d87ff"/>
      <resource>
         <Observation><!--Travel History-->
            <meta>
               <profile value="http://hl7.org/fhir/us/ecr/StructureDefinition/travel-history-observation"/>
               <!--CDA templateId: urn:hl7ii:2.16.840.1.113883.10.20.15.2.3.1:2016-12-01-->
            </meta>
            <identifier>
               <system value="urn:ietf:rfc:3986"/>
               <value value="urn:uuid:45397b5c-e974-4cf1-8b19-e1555bd55701"/>
            </identifier>
            <status value="final"/>
            <code>
               <coding>
                  <system value="http://snomed.info/sct"/>
                  <code value="420008001"/>
                  <display value="Travel"/>
               </coding>
            </code>
            <subject>
               <reference value="urn:uuid:3a11614e-bffc-4030-ab09-90c9d5eebdd7"/>
            </subject>
            <effectivePeriod>
               <start value="2018-10-22"/>
               <end value="2018-10-30"/>
            </effectivePeriod>
            <performer>
               <reference value="urn:uuid:9d8db443-b77b-4bc7-b0b2-b3403dc537d2"/>
            </performer>
            <component>
               <code>
                  <coding>
                     <system value="http://terminology.hl7.org/CodeSystem/v3-ParticipationType"/>
                     <code value="LOC"/>
                     <display value="Location"/>
                  </coding>
               </code>
               <valueCodeableConcept>
                  <extension url="http://hl7.org/fhir/us/ecr/StructureDefinition/travel-history-address-extension">
                     <valueAddress>
                        <line value="1170 N Rancho Robles Rd"/>
                        <city value="Oracle"/>
                        <state value="AZ"/>
                        <postalCode value="8562"/>
                        <country value="US"/>
                     </valueAddress>
                  </extension>
               </valueCodeableConcept>
            </component>
         </Observation>
      </resource>
   </entry>
   <entry>
      <fullUrl value="urn:uuid:f25ae238-23b8-4d92-aabc-ccd87a8c5617"/>
      <resource>
         <Observation><!--ODH Usual Work-->
            <meta>
               <profile value="http://hl7.org/fhir/us/odh/StructureDefinition/odh-UsualWork"/>
               <!--CDA templateId: urn:hl7ii:2.16.840.1.113883.10.20.22.4.221:2017-11-30-->
            </meta>
            <identifier>
               <system value="urn:ietf:rfc:3986"/>
               <value value="urn:uuid:4f4b3876-8570-41a0-b995-cf34f37c5cbf"/>
            </identifier>
            <status value="final"/>
            <code>
               <coding>
                  <system value="http://loinc.org"/>
                  <code value="21843-8"/>
                  <display value="Usual Occupation"/>
               </coding>
            </code>
            <subject>
               <reference value="urn:uuid:3a11614e-bffc-4030-ab09-90c9d5eebdd7"/>
            </subject>
            <effectivePeriod>
               <start value="1996-11-24"/>
            </effectivePeriod>
            <performer>
               <reference value="urn:uuid:9d8db443-b77b-4bc7-b0b2-b3403dc537d2"/>
            </performer>
            <valueCodeableConcept>
               <coding>
                  <system value="urn:oid:2.16.840.1.114222.4.5.314"/>
                  <code value="1200"/>
                  <display value="Actuaries"/>
               </coding>
            </valueCodeableConcept>
            <component><!--Observation.component: odh-UsualIndustry-->
               <code>
                  <coding>
                     <system value="http://loinc.org"/>
                     <code value="21844-6"/>
                     <display value="Usual Industry"/>
                  </coding>
               </code>
               <valueCodeableConcept>
                  <coding>
                     <system value="urn:oid:2.16.840.1.114222.4.5.315"/>
                     <code value="7280"/>
                     <display value="Accounting, tax preparation, bookkeeping, and payroll services"/>
                  </coding>
               </valueCodeableConcept>
            </component>
         </Observation>
      </resource>
   </entry>
   <entry>
      <fullUrl value="urn:uuid:d069a6f9-6dc6-4e2a-ae44-b3eb595f5404"/>
      <resource>
         <Observation><!--ODH Past or Present Job-->
            <meta>
               <profile value="http://hl7.org/fhir/us/odh/StructureDefinition/odh-PastOrPresentJob"/>
               <!--CDA templateId: urn:hl7ii:2.16.840.1.113883.10.20.22.4.217:2017-11-30-->
            </meta>
            <identifier>
               <system value="urn:ietf:rfc:3986"/>
               <value value="urn:uuid:1728123a-7b6c-418c-adc2-f78417caf62c"/>
            </identifier>
            <status value="final"/>
            <code>
               <coding>
                  <system value="http://loinc.org"/>
                  <code value="11341-5"/>
                  <display value="History of Occupation"/>
               </coding>
            </code>
            <subject>
               <reference value="urn:uuid:3a11614e-bffc-4030-ab09-90c9d5eebdd7"/>
            </subject>
            <effectivePeriod>
               <start value="2015-04-24"/>
            </effectivePeriod>
            <performer>
               <reference value="urn:uuid:9d8db443-b77b-4bc7-b0b2-b3403dc537d2"/>
            </performer>
            <valueCodeableConcept>
               <coding>
                  <system value="urn:oid:2.16.840.1.114222.4.5.314"/>
                  <code value="1200"/>
                  <display value="Actuaries"/>
               </coding>
            </valueCodeableConcept>
            <component><!--Observation.component: odh-OccupationalHazard-->
               <code>
                  <coding>
                     <system value="http://loinc.org"/>
                     <code value="87729-0"/>
                     <display value="History of Occupational hazard"/>
                  </coding>
               </code>
               <valueString value="Asbestos"/>
            </component>
            <component><!--Observation.component: odh-PastOrPresentIndustry-->
               <code>
                  <coding>
                     <system value="http://loinc.org"/>
                     <code value="86188-0"/>
                     <display value="Occupation Industry"/>
                  </coding>
               </code>
               <valueCodeableConcept>
                  <coding>
                     <system value="urn:oid:2.16.840.1.114222.4.5.315"/>
                     <code value="7280"/>
                     <display value="Accounting, tax preparation, bookkeeping, and payroll services"/>
                  </coding>
               </valueCodeableConcept>
            </component>
         </Observation>
      </resource>
   </entry>
   <entry>
      <fullUrl value="urn:uuid:ca2df9f6-f8fa-47ec-81b8-1ad13f179b63"/>
      <resource>
         <Observation><!--Pregnancy Status Observation-->
            <meta>
               <profile value="http://hl7.org/fhir/us/ecr/StructureDefinition/pregnancy-status-observation"/>
               <!--CDA templateId: urn:hl7ii:2.16.840.1.113883.10.20.22.4.293:2018-04-01-->
            </meta>
            <!--Pregnancy Status Determination Date-->
            <extension url="http://hl7.org/fhir/us/ecr/StructureDefinition/date-determined-extension">
               <valueDateTime value="2017-10-01"/>
            </extension>
            <!--Pregnancy Status Recorded Date-->
            <extension url="http://hl7.org/fhir/us/ecr/StructureDefinition/date-recorded-extension">
               <valueDateTime value="2017-10-01T10:35:00+10:00"/>
            </extension>
            <identifier>
               <system value="urn:ietf:rfc:3986"/>
               <value value="urn:uuid:bab77407-f76d-4a51-a2ed-980c8a59fe28"/>
            </identifier>
            <status value="final"/>
            <code>
               <coding>
                  <system value="http://loinc.org"/>
                  <code value="82810-3"/>
                  <display value="Pregnancy Status"/>
               </coding>
            </code>
            <subject>
               <reference value="urn:uuid:3a11614e-bffc-4030-ab09-90c9d5eebdd7"/>
            </subject>
            <effectivePeriod>
               <start value="2017-08-26"/>
            </effectivePeriod>
            <performer>
               <reference value="urn:uuid:715a7ebd-5389-47d2-af9b-9322e02c6aab"/>
            </performer>
            <valueCodeableConcept>
               <coding>
                  <system value="http://snomed.info/sct"/>
                  <code value="77386006"/>
                  <display value="Pregnant"/>
               </coding>
            </valueCodeableConcept>
            <method>
               <coding>
                  <system value="http://snomed.info/sct"/>
                  <code value="16310003"/>
                  <display value="Diagnostic ultrasonography (procedure)"/>
               </coding>
            </method>
            <component><!--Observation.component: sliceEstimatedDateOfDelivery-->
               <extension url="http://hl7.org/fhir/us/ecr/StructureDefinition/date-determined-extension">
                  <valueDateTime value="2017-10-01T10:15:00+10:00"/>
               </extension>
               <code>
                  <coding>
                     <system value="http://loinc.org"/>
                     <code value="11780-4"/>
                     <display value="Delivery date estimated from ovulation date"/>
                  </coding>
               </code>
               <valueDateTime value="2017-05-22"/>
            </component>
            <component><!--Observation.component: sliceEstimatedGestationalAgeOfPregnancysliceEstimatedDateOfDelivery-->
               <extension url="http://hl7.org/fhir/us/ecr/StructureDefinition/date-determined-extension">
                  <valueDateTime value="2017-10-01T10:15:00+10:00"/>
               </extension>
               <code>
                  <coding>
                     <system value="http://loinc.org"/>
                     <code value="11887-7"/>
                     <display value="Gestational age Estimated from selected delivery date"/>
                  </coding>
               </code>
               <valueQuantity>
                  <value value="143"/>
                  <unit value="d"/>
               </valueQuantity>
            </component>
         </Observation>
      </resource>
   </entry>
   <entry>
      <fullUrl value="urn:uuid:e5022549-fb18-4d64-8972-acda996a6d01"/>
      <resource>
         <Observation><!--Pregnancy Outcome Observation-->
            <meta>
               <profile value="http://hl7.org/fhir/us/ecr/StructureDefinition/pregnancy-outcome-observation"/>
               <!--CDA templateId: urn:hl7ii:2.16.840.1.113883.10.20.22.4.284:2018-04-01-->
            </meta>
            <identifier>
               <system value="urn:ietf:rfc:3986"/>
               <value value="urn:uuid:6df3e951-e6f8-441d-a298-d9d6d3f405db"/>
            </identifier>
            <status value="final"/>
            <code>
               <coding>
                  <system value="http://loinc.org"/>
                  <code value="63893-2"/>
                  <display value="Outcome of Pregnancy"/>
               </coding>
            </code>
            <subject>
               <reference value="urn:uuid:3a11614e-bffc-4030-ab09-90c9d5eebdd7"/>
            </subject>
            <!--Reference to related Pregnancy Observation-->
            <focus>
               <reference value="urn:uuid:ca2df9f6-f8fa-47ec-81b8-1ad13f179b63"/>
            </focus>
            <effectiveDateTime value="2018-01-05T08:50:00+10:00"/>
            <performer>
               <reference value="urn:uuid:9d8db443-b77b-4bc7-b0b2-b3403dc537d2"/>
            </performer>
            <!--Birth Order component-->
            <component>
               <code>
                  <coding>
                     <system value="http://loinc.org"/>
                     <code value="73763"/>
                     <display value="Birth order"/>
                  </coding>
               </code>
               <valueInteger value="1"/>
            </component>
         </Observation>
      </resource>
   </entry>
   <entry>
      <fullUrl value="urn:uuid:0b07dfec-8253-4de8-a3fb-7e02d92e13c5"/>
      <resource>
         <Observation><!--Last Menstrual Period-->
            <meta>
               <profile value="http://hl7.org/fhir/us/ecr/StructureDefinition/last-menstrual-period"/>
               <!--CDA templateId: urn:hl7ii:2.16.840.1.113883.10.20.30.3.34:2014-06-09-->
            </meta>
            <identifier>
               <system value="urn:ietf:rfc:3986"/>
               <value value="urn:uuid:5ffea0ae-9ae5-4313-956a-30219b4a6afa"/>
            </identifier>
            <status value="final"/>
            <code>
               <coding>
                  <system value="http://loinc.org"/>
                  <code value="8665-2"/>
                  <display value="Last menstrual period start date"/>
               </coding>
            </code>
            <subject>
               <reference value="urn:uuid:3a11614e-bffc-4030-ab09-90c9d5eebdd7"/>
            </subject>
            <effectiveDateTime value="2018-01-05T10:15:00+10:00"/>
            <performer>
               <reference value="urn:uuid:9d8db443-b77b-4bc7-b0b2-b3403dc537d2"/>
            </performer>
            <!--Start of last menstrual period-->
            <valueDateTime value="2017-08-01"/>
         </Observation>
      </resource>
   </entry>
   <entry>
      <fullUrl value="urn:uuid:21e393f4-45c4-4566-bb42-804f5d479d4e"/>
      <resource>
         <Observation><!--Postpartum Status-->
            <meta>
               <profile value="http://hl7.org/fhir/us/ecr/StructureDefinition/postpartum-status"/>
               <!--CDA templateId: urn:hl7ii:2.16.840.1.113883.10.20.22.4.285:2018-04-01-->
            </meta>
            <identifier>
               <system value="urn:ietf:rfc:3986"/>
               <value value="urn:uuid:9701b264-0f70-47f9-bfbf-aa4f9686cd3a"/>
            </identifier>
            <status value="final"/>
            <code>
               <coding>
                  <system value="http://snomed.info/sct"/>
                  <code value="249197004"/>
                  <display value="Maternal condition during puerperium (observable entity)"/>
               </coding>
            </code>
            <subject>
               <reference value="urn:uuid:3a11614e-bffc-4030-ab09-90c9d5eebdd7"/>
            </subject>
            <effectiveDateTime value="2018-01-05T10:15:00+10:00"/>
            <performer>
               <reference value="urn:uuid:9d8db443-b77b-4bc7-b0b2-b3403dc537d2"/>
            </performer>
            <!--Postpartum status-->
            <valueCodeableConcept>
               <coding>
                  <system value="http://snomed.info/sct"/>
                  <code value="42814007"/>
                  <display value="Mid postpartum state (finding)"/>
               </coding>
            </valueCodeableConcept>
         </Observation>
      </resource>
   </entry>
   <entry>
      <fullUrl value="urn:uuid:4fe88419-abbe-47be-81a2-c3ef46dc6acf"/>
      <resource>
         <Observation>
            <identifier>
               <system value="urn:ietf:rfc:3986"/>
               <value value="urn:uuid:e421f5c8-29c2-4798-9cb5-7988c236e49d"/>
            </identifier>
            <status value="final"/>
            <category>
               <coding>
                  <system value="http://hl7.org/fhir/observation-category"/>
                  <code value="vital-signs"/>
               </coding>
            </category>
            <code>
               <coding>
                  <system value="http://snomed.info/sct"/>
                  <code value="46680005"/>
                  <display value="Vital Signs"/>
               </coding>
               <coding>
                  <system value="http://loinc.org"/>
                  <code value="74728-7"/>
                  <display value="Vital signs, weight, height, head circumference, oximetry, BMI, and BSA panel"/>
               </coding>
            </code>
            <subject>
               <reference value="urn:uuid:3a11614e-bffc-4030-ab09-90c9d5eebdd7"/>
            </subject>
            <effectiveDateTime value="2014-05-20T19:36:05.000-05:00"/>
            <performer>
               <reference value="urn:uuid:9d8db443-b77b-4bc7-b0b2-b3403dc537d2"/>
            </performer>
            <hasMember><!--2.16.840.1.113883.10.20.22.4.27--><!--2.16.840.1.113883.10.20.22.4.27:2014-06-09-->
               <reference value="urn:uuid:bdb66e94-3a90-4404-bdc0-e986d492a125"/>
            </hasMember>
            <hasMember><!--2.16.840.1.113883.10.20.22.4.27--><!--2.16.840.1.113883.10.20.22.4.27:2014-06-09-->
               <reference value="urn:uuid:bcb23ed8-74fa-4a39-947f-4799687ba3f4"/>
            </hasMember>
            <hasMember><!--2.16.840.1.113883.10.20.22.4.27--><!--2.16.840.1.113883.10.20.22.4.27:2014-06-09-->
               <reference value="urn:uuid:859db830-bf7e-454b-952b-dcc31a244bcc"/>
            </hasMember>
            <hasMember><!--2.16.840.1.113883.10.20.22.4.27--><!--2.16.840.1.113883.10.20.22.4.27:2014-06-09-->
               <reference value="urn:uuid:dfd19daf-6b5f-4873-9c55-ee1708b08fda"/>
            </hasMember>
            <hasMember><!--2.16.840.1.113883.10.20.22.4.27--><!--2.16.840.1.113883.10.20.22.4.27:2014-06-09-->
               <reference value="urn:uuid:285a519f-21fa-4666-8e3a-b138ce72260f"/>
            </hasMember>
            <hasMember><!--2.16.840.1.113883.10.20.22.4.27--><!--2.16.840.1.113883.10.20.22.4.27:2014-06-09-->
               <reference value="urn:uuid:c9e3887a-c515-4fd3-8f82-e4a1766a0757"/>
            </hasMember>
            <hasMember><!--2.16.840.1.113883.10.20.22.4.27--><!--2.16.840.1.113883.10.20.22.4.27:2014-06-09-->
               <reference value="urn:uuid:05ee4c32-e304-4c14-9878-8989b211b7e6"/>
            </hasMember>
            <hasMember><!--2.16.840.1.113883.10.20.22.4.27--><!--2.16.840.1.113883.10.20.22.4.27:2014-06-09-->
               <reference value="urn:uuid:8e5978f5-6797-4f7e-a4b5-20c13a019717"/>
            </hasMember>
            <hasMember><!--2.16.840.1.113883.10.20.22.4.27--><!--2.16.840.1.113883.10.20.22.4.27:2014-06-09-->
               <reference value="urn:uuid:162bf97b-4c06-465d-98ea-f44c6c4ba26e"/>
            </hasMember>
         </Observation>
      </resource>
   </entry>
   <entry>
      <fullUrl value="urn:uuid:bdb66e94-3a90-4404-bdc0-e986d492a125"/>
      <resource>
         <Observation>
            <meta>
               <profile value="http://hl7.org/fhir/us/core/StructureDefinition/us-core-vitalsigns"/>
               <!--CDA templateId: urn:hl7ii:2.16.840.1.113883.10.20.22.4.27:2014-06-09-->
            </meta>
            <identifier>
               <system value="urn:ietf:rfc:3986"/>
               <value value="urn:uuid:2721acc5-0d05-4402-9e62-79943ea3901c"/>
            </identifier>
            <status value="final"/>
            <category>
               <coding>
                  <system value="http://hl7.org/fhir/observation-category"/>
                  <code value="vital-signs"/>
               </coding>
            </category>
            <code>
               <coding>
                  <system value="http://loinc.org"/>
                  <code value="8480-6"/>
                  <display value="SYSTOLIC BLOOD PRESSURE"/>
               </coding>
            </code>
            <subject>
               <reference value="urn:uuid:3a11614e-bffc-4030-ab09-90c9d5eebdd7"/>
            </subject>
            <effectiveDateTime value="2014-05-20T19:36:05.000-05:00"/>
            <performer>
               <reference value="urn:uuid:9d8db443-b77b-4bc7-b0b2-b3403dc537d2"/>
            </performer>
            <valueQuantity>
               <value value="120"/>
               <unit value="mm[Hg]"/>
            </valueQuantity>
         </Observation>
      </resource>
   </entry>
   <entry>
      <fullUrl value="urn:uuid:bcb23ed8-74fa-4a39-947f-4799687ba3f4"/>
      <resource>
         <Observation>
            <meta>
               <profile value="http://hl7.org/fhir/us/core/StructureDefinition/us-core-vitalsigns"/>
               <!--CDA templateId: urn:hl7ii:2.16.840.1.113883.10.20.22.4.27:2014-06-09-->
            </meta>
            <identifier>
               <system value="urn:ietf:rfc:3986"/>
               <value value="urn:uuid:88a01c83-a096-4705-a992-b5f59eca8c8c"/>
            </identifier>
            <status value="final"/>
            <category>
               <coding>
                  <system value="http://hl7.org/fhir/observation-category"/>
                  <code value="vital-signs"/>
               </coding>
            </category>
            <code>
               <coding>
                  <system value="http://loinc.org"/>
                  <code value="8462-4"/>
                  <display value="DIASTOLIC BLOOD PRESSURE"/>
               </coding>
            </code>
            <subject>
               <reference value="urn:uuid:3a11614e-bffc-4030-ab09-90c9d5eebdd7"/>
            </subject>
            <effectiveDateTime value="2014-05-20T19:36:05.000-05:00"/>
            <performer>
               <reference value="urn:uuid:9d8db443-b77b-4bc7-b0b2-b3403dc537d2"/>
            </performer>
            <valueQuantity>
               <value value="80"/>
               <unit value="mm[Hg]"/>
            </valueQuantity>
         </Observation>
      </resource>
   </entry>
   <entry>
      <fullUrl value="urn:uuid:859db830-bf7e-454b-952b-dcc31a244bcc"/>
      <resource>
         <Observation>
            <meta>
               <profile value="http://hl7.org/fhir/us/core/StructureDefinition/us-core-vitalsigns"/>
               <!--CDA templateId: urn:hl7ii:2.16.840.1.113883.10.20.22.4.27:2014-06-09-->
            </meta>
            <identifier>
               <system value="urn:ietf:rfc:3986"/>
               <value value="urn:uuid:83bbffe1-54e5-4984-a32d-ad8f8d6896d8"/>
            </identifier>
            <status value="final"/>
            <category>
               <coding>
                  <system value="http://hl7.org/fhir/observation-category"/>
                  <code value="vital-signs"/>
               </coding>
            </category>
            <code>
               <coding>
                  <system value="http://loinc.org"/>
                  <code value="8867-4"/>
                  <display value="HEART RATE"/>
               </coding>
            </code>
            <subject>
               <reference value="urn:uuid:3a11614e-bffc-4030-ab09-90c9d5eebdd7"/>
            </subject>
            <effectiveDateTime value="2014-05-20T19:36:05.000-05:00"/>
            <performer>
               <reference value="urn:uuid:9d8db443-b77b-4bc7-b0b2-b3403dc537d2"/>
            </performer>
            <valueQuantity>
               <value value="80"/>
               <unit value="/min"/>
            </valueQuantity>
         </Observation>
      </resource>
   </entry>
   <entry>
      <fullUrl value="urn:uuid:dfd19daf-6b5f-4873-9c55-ee1708b08fda"/>
      <resource>
         <Observation>
            <meta>
               <profile value="http://hl7.org/fhir/us/core/StructureDefinition/us-core-vitalsigns"/>
               <!--CDA templateId: urn:hl7ii:2.16.840.1.113883.10.20.22.4.27:2014-06-09-->
            </meta>
            <identifier>
               <system value="urn:ietf:rfc:3986"/>
               <value value="urn:uuid:85f5784f-2958-4321-b7b6-3030d1577dc0"/>
            </identifier>
            <status value="final"/>
            <category>
               <coding>
                  <system value="http://hl7.org/fhir/observation-category"/>
                  <code value="vital-signs"/>
               </coding>
            </category>
            <code>
               <coding>
                  <system value="http://loinc.org"/>
                  <code value="8310-5"/>
                  <display value="BODY TEMPERATURE"/>
               </coding>
            </code>
            <subject>
               <reference value="urn:uuid:3a11614e-bffc-4030-ab09-90c9d5eebdd7"/>
            </subject>
            <effectiveDateTime value="2014-05-20T19:36:05.000-05:00"/>
            <performer>
               <reference value="urn:uuid:9d8db443-b77b-4bc7-b0b2-b3403dc537d2"/>
            </performer>
            <valueQuantity>
               <value value="99.0"/>
               <unit value="[degF]"/>
            </valueQuantity>
         </Observation>
      </resource>
   </entry>
   <entry>
      <fullUrl value="urn:uuid:285a519f-21fa-4666-8e3a-b138ce72260f"/>
      <resource>
         <Observation>
            <meta>
               <profile value="http://hl7.org/fhir/us/core/StructureDefinition/us-core-vitalsigns"/>
               <!--CDA templateId: urn:hl7ii:2.16.840.1.113883.10.20.22.4.27:2014-06-09-->
            </meta>
            <identifier>
               <system value="urn:ietf:rfc:3986"/>
               <value value="urn:uuid:b618fa98-6596-4e19-a9e7-6bdb48012fc8"/>
            </identifier>
            <status value="final"/>
            <category>
               <coding>
                  <system value="http://hl7.org/fhir/observation-category"/>
                  <code value="vital-signs"/>
               </coding>
            </category>
            <code>
               <coding>
                  <system value="http://loinc.org"/>
                  <code value="9279-1"/>
                  <display value="RESPIRATORY RATE"/>
               </coding>
            </code>
            <subject>
               <reference value="urn:uuid:3a11614e-bffc-4030-ab09-90c9d5eebdd7"/>
            </subject>
            <effectiveDateTime value="2014-05-20T19:36:05.000-05:00"/>
            <performer>
               <reference value="urn:uuid:9d8db443-b77b-4bc7-b0b2-b3403dc537d2"/>
            </performer>
            <valueQuantity>
               <value value="18"/>
               <unit value="/min"/>
            </valueQuantity>
         </Observation>
      </resource>
   </entry>
   <entry>
      <fullUrl value="urn:uuid:c9e3887a-c515-4fd3-8f82-e4a1766a0757"/>
      <resource>
         <Observation>
            <meta>
               <profile value="http://hl7.org/fhir/us/core/StructureDefinition/us-core-vitalsigns"/>
               <!--CDA templateId: urn:hl7ii:2.16.840.1.113883.10.20.22.4.27:2014-06-09-->
            </meta>
            <identifier>
               <system value="urn:ietf:rfc:3986"/>
               <value value="urn:uuid:1b1274a9-b45f-449a-8493-08eaeaeba7d6"/>
            </identifier>
            <status value="final"/>
            <category>
               <coding>
                  <system value="http://hl7.org/fhir/observation-category"/>
                  <code value="vital-signs"/>
               </coding>
            </category>
            <code>
               <coding>
                  <system value="http://loinc.org"/>
                  <code value="8302-2"/>
                  <display value="HEIGHT"/>
               </coding>
            </code>
            <subject>
               <reference value="urn:uuid:3a11614e-bffc-4030-ab09-90c9d5eebdd7"/>
            </subject>
            <effectiveDateTime value="2014-05-20T19:36:05.000-05:00"/>
            <performer>
               <reference value="urn:uuid:9d8db443-b77b-4bc7-b0b2-b3403dc537d2"/>
            </performer>
            <valueQuantity>
               <value value="67"/>
               <unit value="[in_us]"/>
            </valueQuantity>
         </Observation>
      </resource>
   </entry>
   <entry>
      <fullUrl value="urn:uuid:05ee4c32-e304-4c14-9878-8989b211b7e6"/>
      <resource>
         <Observation>
            <meta>
               <profile value="http://hl7.org/fhir/us/core/StructureDefinition/us-core-vitalsigns"/>
               <!--CDA templateId: urn:hl7ii:2.16.840.1.113883.10.20.22.4.27:2014-06-09-->
            </meta>
            <identifier>
               <system value="urn:ietf:rfc:3986"/>
               <value value="urn:uuid:1c1f89f1-8e93-4a46-b37f-9434f99727b8"/>
            </identifier>
            <status value="final"/>
            <category>
               <coding>
                  <system value="http://hl7.org/fhir/observation-category"/>
                  <code value="vital-signs"/>
               </coding>
            </category>
            <code>
               <coding>
                  <system value="http://loinc.org"/>
                  <code value="3141-9"/>
                  <display value="WEIGHT"/>
               </coding>
            </code>
            <subject>
               <reference value="urn:uuid:3a11614e-bffc-4030-ab09-90c9d5eebdd7"/>
            </subject>
            <effectiveDateTime value="2014-05-20T19:36:05.000-05:00"/>
            <performer>
               <reference value="urn:uuid:9d8db443-b77b-4bc7-b0b2-b3403dc537d2"/>
            </performer>
            <valueQuantity>
               <value value="239.9"/>
               <unit value="[lb_av]"/>
            </valueQuantity>
         </Observation>
      </resource>
   </entry>
   <entry>
      <fullUrl value="urn:uuid:8e5978f5-6797-4f7e-a4b5-20c13a019717"/>
      <resource>
         <Observation>
            <meta>
               <profile value="http://hl7.org/fhir/us/core/StructureDefinition/us-core-vitalsigns"/>
               <!--CDA templateId: urn:hl7ii:2.16.840.1.113883.10.20.22.4.27:2014-06-09-->
            </meta>
            <identifier>
               <system value="urn:ietf:rfc:3986"/>
               <value value="urn:uuid:fd4ccd0b-c045-4587-8976-a17e2e064a1e"/>
            </identifier>
            <status value="final"/>
            <category>
               <coding>
                  <system value="http://hl7.org/fhir/observation-category"/>
                  <code value="vital-signs"/>
               </coding>
            </category>
            <code>
               <coding>
                  <system value="http://loinc.org"/>
                  <code value="39156-5"/>
                  <display value="BODY MASS INDEX"/>
               </coding>
            </code>
            <subject>
               <reference value="urn:uuid:3a11614e-bffc-4030-ab09-90c9d5eebdd7"/>
            </subject>
            <effectiveDateTime value="2014-05-20T19:36:05.000-05:00"/>
            <performer>
               <reference value="urn:uuid:9d8db443-b77b-4bc7-b0b2-b3403dc537d2"/>
            </performer>
            <valueQuantity>
               <value value="37.58"/>
               <unit value="kg/m2"/>
            </valueQuantity>
         </Observation>
      </resource>
   </entry>
   <entry>
      <fullUrl value="urn:uuid:162bf97b-4c06-465d-98ea-f44c6c4ba26e"/>
      <resource>
         <Observation>
            <meta>
               <profile value="http://hl7.org/fhir/us/core/StructureDefinition/us-core-vitalsigns"/>
               <!--CDA templateId: urn:hl7ii:2.16.840.1.113883.10.20.22.4.27:2014-06-09-->
            </meta>
            <identifier>
               <system value="urn:ietf:rfc:3986"/>
               <value value="urn:uuid:0ef4afda-1638-4ad2-9978-7321bbceb0cb"/>
            </identifier>
            <status value="final"/>
            <category>
               <coding>
                  <system value="http://hl7.org/fhir/observation-category"/>
                  <code value="vital-signs"/>
               </coding>
            </category>
            <code>
               <coding>
                  <system value="http://loinc.org"/>
                  <code value="2710-2"/>
                  <display value="OXYGEN SATURATION"/>
               </coding>
            </code>
            <subject>
               <reference value="urn:uuid:3a11614e-bffc-4030-ab09-90c9d5eebdd7"/>
            </subject>
            <effectiveDateTime value="2014-05-20T19:36:05.000-05:00"/>
            <performer>
               <reference value="urn:uuid:9d8db443-b77b-4bc7-b0b2-b3403dc537d2"/>
            </performer>
            <valueQuantity>
               <value value="98"/>
               <unit value="%"/>
            </valueQuantity>
         </Observation>
      </resource>
   </entry>
</Bundle>
