<?xml version="1.0" encoding="UTF-8"?>
<Bundle xmlns="http://hl7.org/fhir">
   <id value="RR-collection-bundle-d36e13"/>
   <identifier>
      <system value="urn:ietf:rfc:3986"/>
      <value value="urn:uuid:8f26b34c-c995-406d-a7da-7f48cb748781"/>
   </identifier>
   <type value="collection"/>
   <timestamp value="2017-11-14T12:15:00.000-07:00"/>
   <entry>
      <fullUrl value="urn:uuid:92808164-39f7-4b42-9426-8efa0b8053ed"/>
      <resource>
        <Communication xmlns="http://hl7.org/fhir">
          <id value="communication-rr-one-cond-one-pha" />
          <meta>
            <versionId value="11" />
            <lastUpdated value="2019-10-10T15:58:04.000-04:00" />
            <profile value="http://hl7.org/fhir/us/ecr/StructureDefinition/rr-communication" />
          </meta>
          <text>
            <status value="additional" />
            <div xmlns="http://www.w3.org/1999/xhtml">
              <br />
              <br />
              <p>
                <b>Subject:</b>
              </p>
              <p>Public Health Reporting Communication: one or more conditions are reportable, or may
                be reportable, to public health.
              </p>
              <p>
                <b>Summary:</b>
              </p>
              <p>Your organization electronically submitted an initial case report to determine if
                reporting to public health is needed for a patient. "Zika virus disease (disorder)"
                is reportable to "State Department of Health". An initial case report was sent to
                "State Department of Health". Additional information may be required for this report.
                
                
                <br />
              </p>
              <ul>
                <li>
                  <p>Local mosquito-borne Zika virus transmission was reported in your area. Increased watchfulness for symptoms of Zika virus in your patients is warranted. (Immediate action requested)</p>
                </li>
                <li>
                  <p>Additional information for the required reporting of Zika must be submitted to State Department of Health immediately. This additional information can be submitted here. (
                    
                    
                    <a
                      href="http://statedepartmentofhealth.gov/epi/disease/zika/Supplemental_data_form.pdf">Link</a>- Immediate action required)
                    
                    
                  </p>
                </li>
                <li>
                  <p>Zika has particular risks for pregnant women. Follow-up guidance for pregnant women and couples who are planning pregnancy. (
                    
                    
                    <a
                      href="http://statedepartmentofhealth.gov/epi/diseases/zika/Zika_Virus_Testing_Guidance.pdf">Link</a>- Immediate action requested)
                    
                    
                  </p>
                </li>
              </ul>
            </div>
          </text>
          <extension url="http://hl7.org/fhir/us/ecr/StructureDefinition/rr-priority-extension">
            <valueCodeableConcept>
              <coding>
                <system value="urn:oid:2.16.840.1.114222.4.5.274" />
                <code value="RRVS14" />
                <display value="Action required" />
              </coding>
            </valueCodeableConcept>
          </extension>
          <identifier>
            <system value="http://acme.org/identifiers" />
            <value value="RR12346" />
          </identifier>
          <status value="completed" />
          <category>
            <coding>
              <system value="http://loinc.org" />
              <code value="88085-6" />
              <display value="Reportability response report Document Public health" />
            </coding>
          </category>
          <subject>
            <reference value="Patient/patient-ecr-eve-everywoman" />
            <display value="Eve Everywoman" />
          </subject>
          <topic>
            <text value="Public Health Reporting Communication: one or more conditions are reportable, or may be reportable to public health." />
          </topic>
          <sent value="2018-07-19T04:09:06Z" />
          <recipient>
            <reference value="Practitioner/practitioner-us-core-henry-seven" />
            <display value="Henry Seven, MD" />
          </recipient>
          <sender>
            <reference value="Organization/organization-ecr-health-authority-west" />
            <display value="Health Authority West, 7777 Health Authority Drive, Ann Arbor MI, 99999" />
          </sender>
          <payload id="reportability-response-summary">
            <!--<contentString
              value="Your organization electronically submitted an initial case report to determine if reporting to public health is needed for a patient. 'Zika virus disease (disorder)' is reportable to 'State Department of Health'. An initial case report was sent to 'State Department of Health'. Additional information may be required for this report."
            />-->
          </payload>
          <payload id="relevant-reportable-condition">
            <contentReference>
              <reference value="PlanDefinition/plandefinition-rr-relevant-reportable-condition" />
            </contentReference>
          </payload>
          <payload id="eicr-information">
            <extension id="eicr-processing-status" url="http://hl7.org/fhir/us/ecr/StructureDefinition/rr-eicr-processing-status-extension">
              <extension url="eICRProcessingStatus">
                <valueReference>
                  <reference value="Observation/observation-rr-eicr-processing-status" />
                  <display value="eICR was processed - with a warning" />
                </valueReference>
              </extension>
              <extension url="eICRValidationOutput">
                <valueAttachment>
                  <contentType value="text/html" />
                  <data
                    value=""
                  />
                </valueAttachment>
              </extension>
            </extension>
            <contentReference>
              <reference value="Bundle/bundle-eicr-document-zika" />
              <identifier>
                <system value="http://acme.org/EICR-identifier" />
                <value value="EICR123456" />
              </identifier>
              <display value="eICR_Filename.xml" />
            </contentReference>
          </payload>
        </Communication>
      </resource>
   </entry>
   <entry>
      <fullUrl value="urn:uuid:5d863489-d9a6-4081-a9a4-8d50f8f93a07"/>
      <resource>
         <Patient>
            <meta>
               <profile value="http://hl7.org/fhir/us/ecr/StructureDefinition/ecr-patient"/>
               <!--CDA participant: ClinicalDocument[templateId/@root='2.16.840.1.113883.10.20.15.2.1.2']/recordTarget-->
            </meta>
            <text>
               <status value="generated"/>
               <div xmlns="http://www.w3.org/1999/xhtml">
                  <h1>Everywoman, Eve</h1>
                  <p>Telecom: tel:+1-555-555-2003</p>
                  <p>Telecom: tel:+1-555-555-5555</p>
                  <p>Address: 2222 Home Street<br/>Ann Arbor<br/>MI<br/>99999<br/>County<br/>US</p>
                  <p>Gender: F</p>
                  <p>Birthdate: 1990-04-20</p>
                  <p>Language: pt</p>
               </div>
            </text>
            <extension url="http://hl7.org/fhir/us/core/StructureDefinition/us-core-race">
               <extension url="ombCategory">
                  <valueCoding>
                     <system value="urn:oid:2.16.840.1.113883.6.238"/>
                     <code value="2106-3"/>
                     <display value="White"/>
                  </valueCoding>
               </extension>
               <extension url="text">
                  <valueString value="White"/>
               </extension>
            </extension>
            <extension url="http://hl7.org/fhir/us/core/StructureDefinition/us-core-ethnicity">
               <extension url="ombCategory">
                  <valueCoding>
                     <system value="urn:oid:2.16.840.1.113883.6.238"/>
                     <code value="2135-2"/>
                     <display value="Hispanic or Latino"/>
                  </valueCoding>
               </extension>
               <extension url="text">
                  <valueString value="Hispanic or Latino"/>
               </extension>
            </extension>
            <identifier>
               <system value="urn:oid:2.16.840.1.113883.19.5"/>
               <value value="123453"/>
            </identifier>
            <identifier>
               <system value="http://hl7.org/fhir/sid/us-ssn"/>
               <value value="111-00-1234"/>
            </identifier>
            <name>
               <use value="usual"/>
               <text value="Everywoman, Eve (usual name)"/>
               <family value="Everywoman"/>
               <given value="Eve"/>
            </name>
            <telecom>
               <system value="phone"/>
               <value value="+1-555-555-2003"/>
               <use value="home"/>
            </telecom>
            <telecom>
               <system value="phone"/>
               <value value="+1-555-555-5555"/>
               <use value="work"/>
            </telecom>
            <gender value="female"/>
            <birthDate value="1990-04-20"/>
            <deceasedBoolean value="false"/>
            <address>
               <use value="home"/>
               <line value="2222 Home Street"/>
               <city value="Ann Arbor"/>
               <district value="County"/>
               <state value="MI"/>
               <postalCode value="99999"/>
               <country value="US"/>
            </address>
            <communication>
               <language>
                  <coding>
                     <code value="pt"/>
                  </coding>
               </language>
               <preferred value="true"/>
            </communication>
         </Patient>
      </resource>
   </entry>
   <entry>
      <fullUrl value="urn:uuid:32fa49b5-128a-4fac-ab5c-15e4f8309310"/>
      <resource>
         <Encounter>
            <identifier>
               <system value="urn:oid:2.16.840.1.113883.19"/>
               <value value="9937012"/>
            </identifier>
            <status value="finished"/>
            <class>
               <system value="http://terminology.hl7.org/CodeSystem/v3-ActCode"/>
               <code value="AMB"/>
            </class>
            <type>
               <coding>
                  <system value="http://www.ama-assn.org/go/cpt"/>
                  <code value="99213"/>
                  <display value="Office outpatient visit 15 minutes"/>
               </coding>
               <coding>
                  <system value="http://terminology.hl7.org/CodeSystem/v3-ActCode"/>
                  <code value="AMB"/>
                  <display value="Ambulatory"/>
               </coding>
            </type>
            <subject>
               <reference value="urn:uuid:5d863489-d9a6-4081-a9a4-8d50f8f93a07"/>
            </subject>
            <participant>
               <individual>
                  <reference value="urn:uuid:2a1f398f-7aa5-4f64-84bd-795587e1e206"/>
               </individual>
            </participant>
            <period>
               <start value="2017-11-14T10:00:00.000-07:00"/>
               <end value="2017-11-14T10:15:00.000-07:00"/>
            </period>
            <location>
               <location>
                  <reference value="urn:uuid:31eaf95e-5f66-4dde-bb87-800b55df102b"/>
               </location>
            </location>
            <serviceProvider>
               <reference value="urn:uuid:aaba0646-6a85-4a2b-98e3-447e9033d87c"/>
            </serviceProvider>
         </Encounter>
      </resource>
   </entry>
   <entry>
      <fullUrl value="urn:uuid:2a1f398f-7aa5-4f64-84bd-795587e1e206"/>
      <resource>
         <PractitionerRole><!--responsibleParty/assignedEntity-->
            <identifier>
               <system value="http://hl7.org/fhir/sid/us-npi"/>
               <value value="6666666666666"/>
            </identifier>
            <practitioner>
               <reference value="urn:uuid:92482450-1969-4ded-a670-855e03774d62"/>
            </practitioner>
            <organization>
               <reference value="urn:uuid:b6d91d81-3463-431d-a3f5-abfd0a9afdfb"/>
            </organization>
            <telecom>
               <system value="phone"/>
               <value value="+1-555-555-1002"/>
               <use value="work"/>
            </telecom>
            <telecom>
               <system value="fax"/>
               <value value="+1-555-955-1002"/>
               <use value="work"/>
            </telecom>
            <telecom>
               <system value="email"/>
               <value value="henrysevenmd@email.net"/>
               <use value="work"/>
            </telecom>
         </PractitionerRole>
      </resource>
   </entry>
   <entry>
      <fullUrl value="urn:uuid:92482450-1969-4ded-a670-855e03774d62"/>
      <resource>
         <Practitioner><!--assignedEntity[cda:id[@root="2.16.840.1.113883.4.6"]]/assignedPerson-->
            <meta>
               <profile value="http://hl7.org/fhir/us/core/StructureDefinition/us-core-practitioner"/>
            </meta>
            <text>
               <status value="generated"/>
               <div xmlns="http://www.w3.org/1999/xhtml">
                  <p>Name: Seven, Henry</p>
                  <p>---TODO: ID info---</p>
                  <p>Telephone: tel:+1-555-555-1002 fax:+1-555-955-1002 mailto:henrysevenmd@email.net</p>
               </div>
            </text>
            <identifier>
               <system value="http://hl7.org/fhir/sid/us-npi"/>
               <value value="6666666666666"/>
            </identifier>
            <name>
               <text value="Seven, Dr. Henry"/>
               <family value="Seven"/>
               <given value="Henry"/>
               <prefix value="Dr."/>
            </name>
            <telecom>
               <system value="phone"/>
               <value value="+1-555-555-1002"/>
               <use value="work"/>
            </telecom>
            <telecom>
               <system value="fax"/>
               <value value="+1-555-955-1002"/>
               <use value="work"/>
            </telecom>
            <telecom>
               <system value="email"/>
               <value value="henrysevenmd@email.net"/>
               <use value="work"/>
            </telecom>
            <address>
               <line value="1002 Healthcare Drive"/>
               <city value="Ann Arbor"/>
               <state value="MI"/>
               <postalCode value="99999"/>
               <country value="US"/>
            </address>
         </Practitioner>
      </resource>
   </entry>
   <entry>
      <fullUrl value="urn:uuid:b6d91d81-3463-431d-a3f5-abfd0a9afdfb"/>
      <resource>
         <Organization>
            <identifier>
               <system value="urn:ietf:rfc:3986"/>
               <value value="urn:uuid:b6d91d81-3463-431d-a3f5-abfd0a9afdfb"/>
            </identifier>
            <active value="true"/>
            <name value="RepresentedOrganization Level Seven Healthcare, Inc."/>
            <telecom>
               <system value="phone"/>
               <value value="+1-555-555-1002"/>
               <use value="work"/>
            </telecom>
            <telecom>
               <system value="fax"/>
               <value value="+1-555-955-1002"/>
               <use value="work"/>
            </telecom>
            <telecom>
               <system value="email"/>
               <value value="henrysevenmd@email.net"/>
               <use value="work"/>
            </telecom>
            <address>
               <line value="4444 Healthcare Drive"/>
               <city value="Ann Arbor"/>
               <state value="MI"/>
               <postalCode value="99999"/>
               <country value="US"/>
            </address>
         </Organization>
      </resource>
   </entry>
   <entry>
      <fullUrl value="urn:uuid:31eaf95e-5f66-4dde-bb87-800b55df102b"/>
      <resource>
         <Location>
            <identifier>
               <system value="http://hl7.org/fhir/sid/us-npi"/>
               <value value="77777777777"/>
            </identifier>
            <name value="SerivceProviderOrganization Level Seven Healthcare, Inc."/>
            <type>
               <coding>
                  <system value="http://terminology.hl7.org/CodeSystem/v3-RoleCode"/>
                  <code value="OF"/>
                  <display value="Outpatient facility"/>
               </coding>
            </type>
            <telecom>
               <system value="phone"/>
               <value value="+1(555)555-3001"/>
               <use value="work"/>
            </telecom>
            <address>
               <line value="Clinic Bldg A, 4444 Healthcare Drive"/>
               <city value="Ann Arbor"/>
               <state value="MI"/>
               <postalCode value="99999"/>
               <country value="US"/>
            </address>
         </Location>
      </resource>
   </entry>
   <entry>
      <fullUrl value="urn:uuid:aaba0646-6a85-4a2b-98e3-447e9033d87c"/>
      <resource>
         <Organization>
            <identifier>
               <system value="urn:ietf:rfc:3986"/>
               <value value="urn:uuid:aaba0646-6a85-4a2b-98e3-447e9033d87c"/>
            </identifier>
            <active value="true"/>
            <name value="SerivceProviderOrganization Level Seven Healthcare, Inc."/>
            <telecom>
               <system value="phone"/>
               <value value="+1(555)555-3001"/>
               <use value="work"/>
            </telecom>
            <address>
               <line value="Clinic Bldg A, 4444 Healthcare Drive"/>
               <city value="Ann Arbor"/>
               <state value="MI"/>
               <postalCode value="99999"/>
               <country value="US"/>
            </address>
         </Organization>
      </resource>
   </entry>
   <entry>
      <fullUrl value="urn:uuid:0f2d3fde-1509-4c18-9dc7-c510db07dfa0"/>
      <resource>
         <Location><!--cda:assignedAuthor[cda:assignedAuthoringDevice]-->
            <telecom>
               <system value="phone"/>
               <value value="+1-(555)555-1002;ext=9998"/>
               <use value="work"/>
            </telecom>
            <address>
               <line value="1002 Healthcare Drive"/>
               <city value="Ann Arbor"/>
               <state value="MI"/>
               <postalCode value="99999"/>
               <country value="US"/>
            </address>
         </Location>
      </resource>
   </entry>
   <entry>
      <fullUrl value="urn:uuid:0bd88c6f-15db-463e-a98f-702cb862fa1b"/>
      <resource>
         <Device>
            <identifier>
               <system value="urn:ietf:rfc:3986"/>
               <value value="urn:oid:2.16.840.1.113883.3.72.5.20"/>
            </identifier>
            <!--cda:assignedAuthoringDevice-->
            <modelNumber value="RR Authoring Platform"/>
            <version>
               <value value="RR Authoring Platform"/>
            </version>
            <location>
               <reference value="urn:uuid:0f2d3fde-1509-4c18-9dc7-c510db07dfa0"/>
            </location>
         </Device>
      </resource>
   </entry>
   <entry>
      <fullUrl value="urn:uuid:d508888c-3ce1-4078-b411-e99587b02da0"/>
      <resource>
         <Organization>
            <identifier>
               <system value="http://hl7.org/fhir/sid/us-npi"/>
               <value value="88888888"/>
            </identifier>
            <active value="true"/>
            <name value="Custodian Level Seven Healthcare, Inc."/>
            <telecom>
               <system value="phone"/>
               <value value="+1(555)555-3001"/>
               <use value="work"/>
            </telecom>
            <address>
               <line value="4444 Healthcare Drive"/>
               <city value="Ann Arbor"/>
               <state value="MI"/>
               <postalCode value="99999"/>
               <country value="US"/>
            </address>
         </Organization>
      </resource>
   </entry>
   <entry>
      <fullUrl value="urn:uuid:415027c3-fc32-48d6-a817-170e76e3bb00"/>
      <resource>
         <Organization>
            <identifier>
               <system value="urn:ietf:rfc:3986"/>
               <value value="urn:uuid:415027c3-fc32-48d6-a817-170e76e3bb00"/>
            </identifier>
            <active value="true"/>
            <name value="ReceivedOrganization Level Seven Healthcare, Inc."/>
            <telecom>
               <system value="phone"/>
               <value value="+1-555-555-1002"/>
               <use value="work"/>
            </telecom>
            <telecom>
               <system value="fax"/>
               <value value="+1-555-955-1002"/>
               <use value="work"/>
            </telecom>
            <telecom>
               <system value="email"/>
               <value value="henrysevenmd@email.net"/>
               <use value="work"/>
            </telecom>
            <address>
               <line value="4444 Healthcare Drive"/>
               <city value="Ann Arbor"/>
               <state value="MI"/>
               <postalCode value="99999"/>
               <country value="US"/>
            </address>
         </Organization>
      </resource>
   </entry>
   <!--No template match for 2.16.840.1.113883.10.20.22.4.20: 2014-06-09-->
   <!--No template match for 2.16.840.1.113883.10.20.15.2.3.7: 2017-04-01-->
   <!--No template match for 2.16.840.1.113883.10.20.22.4.20: 2014-06-09-->
   <!--No template match for 2.16.840.1.113883.10.20.15.2.3.8: 2017-04-01-->
   <entry>
      <fullUrl value="urn:uuid:88923d65-28dd-44fe-8471-82951b157b4c"/>
      <resource>
         <PlanDefinition>
            <meta>
               <profile value="http://hl7.org/fhir/us/ecr/StructureDefinition/rr-relevant-reportable-condition-plandefinition"/>
            </meta>
            <extension url="http://hl7.org/fhir/us/ecr/StructureDefinition/rr-determination-of-reportability-extension">
               <valueCodeableConcept>
                  <coding>
                     <system value="urn:oid:2.16.840.1.114222.4.5.274"/>
                     <code value="RRVS1"/>
                     <display value="Reportable"/>
                  </coding>
               </valueCodeableConcept>
            </extension>
            <extension url="http://hl7.org/fhir/us/ecr/StructureDefinition/rr-determination-of-reportability-reason-extension">
               <valueString value="Reason for determination of reportability"/>
            </extension>
            <extension url="http://hl7.org/fhir/us/ecr/StructureDefinition/rr-determination-of-reportability-rule-extension">
               <valueString value="Rule used in reportability determination"/>
            </extension>
            <status value="active"/>
            <publisher>
               <extension url="http://hl7.org/fhir/us/ecr/StructureDefinition/rr-rules-authoring-agency-organization-extension">
                  <valueReference>
                     <reference value="urn:uuid:375a8804-3eb9-439e-b19e-bb78b792b9d5"/>
                  </valueReference>
               </extension>
            </publisher>
            <jurisdiction>
               <extension url="http://hl7.org/fhir/us/ecr/StructureDefinition/rr-location-relevance-extension">
                  <valueCodeableConcept>
                     <coding>
                        <system value="urn:oid:2.16.840.1.114222.4.5.274"/>
                        <code value="RRVS7"/>
                        <display value="Both patient home address and provider facility address"/>
                     </coding>
                  </valueCodeableConcept>
               </extension>
               <extension url="http://hl7.org/fhir/us/ecr/StructureDefinition/rr-routing-entity-organization-extension">
                  <valueReference>
                     <reference value="urn:uuid:45d0d728-3b45-4634-a4e8-5ac8d686b32a"/>
                  </valueReference>
               </extension>
               <extension url="http://hl7.org/fhir/us/ecr/StructureDefinition/rr-responsible-agency-organization-extension">
                  <valueReference>
                     <reference value="urn:uuid:d79a3a26-8f22-4a46-9fe2-b378211005e0"/>
                  </valueReference>
               </extension>
            </jurisdiction>
            <goal>
               <description>
                  <text value="Reportability Feedback"/>
               </description>
               <addresses>
                  <coding>
                     <system value="http://snomed.info/sct"/>
                     <code value="3928002"/>
                     <display value="Zika virus disease (disorder)"/>
                  </coding>
               </addresses>
            </goal>
            <action>
               <documentation>
                  <extension url="http://hl7.org/fhir/us/ecr/StructureDefinition/rr-external-resource-type-extension">
                     <valueCodeableConcept>
                        <coding>
                           <system value="urn:oid:2.16.840.1.114222.4.5.274"/>
                           <code value="RRVS13"/>
                           <display value="Outbreak- or Cluster Related"/>
                        </coding>
                     </valueCodeableConcept>
                  </extension>
                  <extension url="http://hl7.org/fhir/us/ecr/StructureDefinition/rr-priority-extension">
                     <valueCodeableConcept>
                        <coding>
                           <system value="urn:oid:2.16.840.1.114222.4.5.274"/>
                           <code value="RRVS18"/>
                           <display value="Immediate action requested"/>
                        </coding>
                     </valueCodeableConcept>
                  </extension>
                  <type value="documentation"/>
                  <display value="Local mosquito-borne Zika virus transmission was reported in your area. Increased watchfulness for symptoms of Zika virus in your patients is warranted."/>
               </documentation>
               <documentation>
                  <extension url="http://hl7.org/fhir/us/ecr/StructureDefinition/rr-external-resource-type-extension">
                     <valueCodeableConcept>
                        <coding>
                           <system value="urn:oid:2.16.840.1.114222.4.5.274"/>
                           <code value="RRVS10"/>
                           <display value="Treatment and/or prevention"/>
                        </coding>
                     </valueCodeableConcept>
                  </extension>
                  <extension url="http://hl7.org/fhir/us/ecr/StructureDefinition/rr-priority-extension">
                     <valueCodeableConcept>
                        <coding>
                           <system value="urn:oid:2.16.840.1.114222.4.5.274"/>
                           <code value="RRVS18"/>
                           <display value="Immediate action requested"/>
                        </coding>
                     </valueCodeableConcept>
                  </extension>
                  <type value="documentation"/>
                  <display value="Zika has particular risks for pregnant women. Follow-up guidance for pregnant women and couples who are planning pregnancy."/>
                  <url value="http://statedepartmentofhealth.gov/epi/diseases/zika/Zika_Virus_Testing_Guidance.pdf"/>
               </documentation>
               <documentation>
                  <extension url="http://hl7.org/fhir/us/ecr/StructureDefinition/rr-external-resource-type-extension">
                     <valueCodeableConcept>
                        <coding>
                           <system value="urn:oid:2.16.840.1.114222.4.5.274"/>
                           <code value="RRVS9"/>
                           <display value="Additional detection and/or laboratory testing needs"/>
                        </coding>
                     </valueCodeableConcept>
                  </extension>
                  <extension url="http://hl7.org/fhir/us/ecr/StructureDefinition/rr-priority-extension">
                     <valueCodeableConcept>
                        <coding>
                           <system value="urn:oid:2.16.840.1.114222.4.5.274"/>
                           <code value="RRVS16"/>
                           <display value="Action requested"/>
                        </coding>
                     </valueCodeableConcept>
                  </extension>
                  <type value="documentation"/>
                  <display value="Further Laboratory testing for Zika may be needed. Guidance for additional testing and specimen collection"/>
                  <url value="http://statedepartmentofhealth.gov/epi/diseases/zika/Zika_Virus_Testing_Guidance.pdf"/>
               </documentation>
               <documentation>
                  <extension url="http://hl7.org/fhir/us/ecr/StructureDefinition/rr-external-resource-type-extension">
                     <valueCodeableConcept>
                        <coding>
                           <system value="urn:oid:2.16.840.1.114222.4.5.274"/>
                           <code value="RRVS10"/>
                           <display value="Treatment and/or prevention"/>
                        </coding>
                     </valueCodeableConcept>
                  </extension>
                  <extension url="http://hl7.org/fhir/us/ecr/StructureDefinition/rr-priority-extension">
                     <valueCodeableConcept>
                        <coding>
                           <system value="urn:oid:2.16.840.1.114222.4.5.274"/>
                           <code value="RRVS15"/>
                           <display value="Information only"/>
                        </coding>
                     </valueCodeableConcept>
                  </extension>
                  <type value="documentation"/>
                  <display value="Treatment guidance"/>
                  <url value="http://statedepartmentofhealth.gov/epi/diseases/zika/Zika_Virus_Testing_Guidance.pdf"/>
               </documentation>
               <documentation>
                  <extension url="http://hl7.org/fhir/us/ecr/StructureDefinition/rr-external-resource-type-extension">
                     <valueCodeableConcept>
                        <coding>
                           <system value="urn:oid:2.16.840.1.114222.4.5.274"/>
                           <code value="RRVS12"/>
                           <display value="PHA Contact Information"/>
                        </coding>
                     </valueCodeableConcept>
                  </extension>
                  <extension url="http://hl7.org/fhir/us/ecr/StructureDefinition/rr-priority-extension">
                     <valueCodeableConcept>
                        <coding>
                           <system value="urn:oid:2.16.840.1.114222.4.5.274"/>
                           <code value="RRVS15"/>
                           <display value="Information only"/>
                        </coding>
                     </valueCodeableConcept>
                  </extension>
                  <type value="documentation"/>
                  <display value="If you have additional questions regarding Zika or reporting, contact information for the State Department of Health is available here."/>
                  <url value="http://statedepartmentofhealth.gov/epi/diseases/zika/Zika_Virus_Testing_Guidance.pdf"/>
               </documentation>
               <documentation>
                  <extension url="http://hl7.org/fhir/us/ecr/StructureDefinition/rr-external-resource-type-extension">
                     <valueCodeableConcept>
                        <coding>
                           <system value="urn:oid:2.16.840.1.114222.4.5.274"/>
                           <code value="RRVS10"/>
                           <display value="Treatment and/or prevention"/>
                        </coding>
                     </valueCodeableConcept>
                  </extension>
                  <extension url="http://hl7.org/fhir/us/ecr/StructureDefinition/rr-priority-extension">
                     <valueCodeableConcept>
                        <coding>
                           <system value="urn:oid:2.16.840.1.114222.4.5.274"/>
                           <code value="RRVS15"/>
                           <display value="Information only"/>
                        </coding>
                     </valueCodeableConcept>
                  </extension>
                  <type value="documentation"/>
                  <display value="Control and prevention information for providers"/>
                  <url value="http://statedepartmentofhealth.gov/epi/diseases/zika/plan.pdf"/>
               </documentation>
               <documentation>
                  <extension url="http://hl7.org/fhir/us/ecr/StructureDefinition/rr-external-resource-type-extension">
                     <valueCodeableConcept>
                        <coding>
                           <system value="urn:oid:2.16.840.1.114222.4.5.274"/>
                           <code value="RRVS11"/>
                           <display value="Additional Resources"/>
                        </coding>
                     </valueCodeableConcept>
                  </extension>
                  <extension url="http://hl7.org/fhir/us/ecr/StructureDefinition/rr-priority-extension">
                     <valueCodeableConcept>
                        <coding>
                           <system value="urn:oid:2.16.840.1.114222.4.5.274"/>
                           <code value="RRVS15"/>
                           <display value="Information only"/>
                        </coding>
                     </valueCodeableConcept>
                  </extension>
                  <type value="documentation"/>
                  <display value="CDC webpage"/>
                  <url value="https://www.cdc.gov/zika/index.html"/>
               </documentation>
               <documentation>
                  <extension url="http://hl7.org/fhir/us/ecr/StructureDefinition/rr-external-resource-type-extension">
                     <valueCodeableConcept>
                        <coding>
                           <system value="urn:oid:2.16.840.1.114222.4.5.274"/>
                           <code value="RRVS11"/>
                           <display value="Additional Resources"/>
                        </coding>
                     </valueCodeableConcept>
                  </extension>
                  <extension url="http://hl7.org/fhir/us/ecr/StructureDefinition/rr-priority-extension">
                     <valueCodeableConcept>
                        <coding>
                           <system value="urn:oid:2.16.840.1.114222.4.5.274"/>
                           <code value="RRVS15"/>
                           <display value="Information only"/>
                        </coding>
                     </valueCodeableConcept>
                  </extension>
                  <type value="documentation"/>
                  <display value="Patient information factsheet"/>
                  <url value="http://statedepartmentofhealth.gov/epi/diseases/zika/factsheet.pdf"/>
               </documentation>
               <documentation>
                  <extension url="http://hl7.org/fhir/us/ecr/StructureDefinition/rr-external-resource-type-extension">
                     <valueCodeableConcept>
                        <coding>
                           <system value="urn:oid:2.16.840.1.114222.4.5.274"/>
                           <code value="RRVS11"/>
                           <display value="Additional Resources"/>
                        </coding>
                     </valueCodeableConcept>
                  </extension>
                  <extension url="http://hl7.org/fhir/us/ecr/StructureDefinition/rr-priority-extension">
                     <valueCodeableConcept>
                        <coding>
                           <system value="urn:oid:2.16.840.1.114222.4.5.274"/>
                           <code value="RRVS15"/>
                           <display value="Information only"/>
                        </coding>
                     </valueCodeableConcept>
                  </extension>
                  <type value="documentation"/>
                  <display value="State Resident information"/>
                  <url value="http://statedepartmentofhealth.gov/epi/diseases/zika/ZikaVirus_QA_StateDOH.pdf"/>
               </documentation>
            </action>
         </PlanDefinition>
      </resource>
   </entry>
   <entry xmlns:lcg="http://www.lantanagroup.com">
      <fullUrl value="urn:uuid:eced92ae-8bf5-4a61-8bae-e58718a89fa8"/>
      <resource>
         <DocumentReference>
            <status value="current"/>
            <type>
               <coding>
                  <system value="http://loinc.org"/>
                  <code value="55751-2"/>
                  <display value="Public Health Case Report (eICR)"/>
               </coding>
            </type>
            <!--Date of external document's creation is not known?-->
            <content>
               <attachment>
                  <url value="urn:oid:2.16.840.1.113883.19.5.99999.19"/>
               </attachment>
            </content>
         </DocumentReference>
      </resource>
   </entry>
   <entry>
      <fullUrl value="urn:uuid:f7fd4131-401a-42b4-8589-a4d1fec7e24e"/>
      <resource>
         <Observation><!--Processing Status Reason-->
            <meta>
               <profile value="http://hl7.org/fhir/us/ecr/StructureDefinition/rr-eicr-processing-status-reason-observation"/>
               <!--CDA templateId: urn:hl7ii:2.16.840.1.113883.10.20.15.2.3.21:2017-04-01-->
            </meta>
            <status value="final"/>
            <code>
               <coding>
                  <system value="urn:oid:2.16.840.1.114222.4.5.232"/>
                  <code value="RR6"/>
                  <display value="eICR processing status reason"/>
               </coding>
            </code>
            <valueCodeableConcept>
               <coding>
                  <system value="urn:oid:2.16.840.1.114222.4.5.274"/>
                  <code value="RRVS29"/>
                  <display value="eICR was processed with the warning of: outdated RCTC version"/>
               </coding>
            </valueCodeableConcept>
            <component>
               <code>
                  <coding>
                     <system value="urn:oid:2.16.840.1.114222.4.5.274"/>
                     <code value="RRVS31"/>
                     <display value="Outdated RCTC Version Detail"/>
                  </coding>
               </code>
               <valueString value="19/05/2016"/>
            </component>
            <component>
               <code>
                  <coding>
                     <system value="urn:oid:2.16.840.1.114222.4.5.274"/>
                     <code value="RRVS33"/>
                     <display value="Expected RCTC Version Detail"/>
                  </coding>
               </code>
               <valueString value="13/10/2017"/>
            </component>
         </Observation>
      </resource>
   </entry>
   <entry>
      <fullUrl value="urn:uuid:dbebb557-f5fb-4872-9dcd-ad2541a53e43"/>
      <resource>
         <Observation><!--Processing Status-->
            <meta>
               <profile value="http://hl7.org/fhir/us/ecr/StructureDefinition/rr-eicr-processing-status-observation"/>
               <!--CDA templateId: urn:hl7ii:2.16.840.1.113883.10.20.15.2.3.29:2017-04-01-->
            </meta>
            <status value="final"/>
            <code>
               <coding>
                  <system value="urn:oid:2.16.840.1.114222.4.5.274"/>
                  <code value="RRVS20"/>
                  <display value="eICR was processed - with a warning"/>
               </coding>
            </code>
            <hasMember>
               <reference value="urn:uuid:f7fd4131-401a-42b4-8589-a4d1fec7e24e"/>
            </hasMember>
         </Observation>
      </resource>
   </entry>
   <!--No template match for 2.16.840.1.113883.10.20.15.2.3.22: 2017-04-01-->
   <entry>
      <fullUrl value="urn:uuid:d79a3a26-8f22-4a46-9fe2-b378211005e0"/>
      <resource>
         <Organization>
            <meta>
               <profile value="http://hl7.org/fhir/us/ecr/StructureDefinition/rr-responsible-agency-organization"/>
            </meta>
            <!--participant[LOC]-->
            <identifier>
               <system value="http://hl7.org/fhir/sid/us-npi"/>
               <value value="12341234"/>
            </identifier>
            <active value="true"/>
            <type>
               <coding>
                  <system value="urn:oid:2.16.840.1.114222.4.5.232"/>
                  <code value="RR8"/>
                  <display value="Responsible Agency"/>
               </coding>
            </type>
            <name value="State Department of Health"/>
            <telecom>
               <system value="phone"/>
               <value value="+1-555-555-3555"/>
               <use value="work"/>
            </telecom>
            <telecom>
               <system value="fax"/>
               <value value="+1-955-555-3555"/>
               <use value="work"/>
            </telecom>
            <telecom>
               <system value="email"/>
               <value value="mail@healthauthoritywest.gov"/>
               <use value="work"/>
            </telecom>
            <telecom>
               <system value="url"/>
               <value value="https://www.healthauthoritywest.gov"/>
               <use value="work"/>
            </telecom>
            <address>
               <use value="work"/>
               <line value="7777 Health Authority Drive"/>
               <city value="Ann Arbor"/>
               <state value="MI"/>
               <postalCode value="99999"/>
            </address>
         </Organization>
      </resource>
   </entry>
   <entry>
      <fullUrl value="urn:uuid:375a8804-3eb9-439e-b19e-bb78b792b9d5"/>
      <resource>
         <Organization>
            <meta>
               <profile value="http://hl7.org/fhir/us/ecr/StructureDefinition/rr-rules-authoring-agency-organization"/>
            </meta>
            <!--participant[LOC]-->
            <identifier>
               <system value="http://hl7.org/fhir/sid/us-npi"/>
               <value value="12341234"/>
            </identifier>
            <active value="true"/>
            <type>
               <coding>
                  <system value="urn:oid:2.16.840.1.114222.4.5.232"/>
                  <code value="RR12"/>
                  <display value="Rules Authoring Agency"/>
               </coding>
            </type>
            <name value="State Department of Health"/>
            <telecom>
               <system value="phone"/>
               <value value="+1-555-555-3555"/>
               <use value="work"/>
            </telecom>
            <telecom>
               <system value="fax"/>
               <value value="+1-955-555-3555"/>
               <use value="work"/>
            </telecom>
            <telecom>
               <system value="email"/>
               <value value="mail@healthauthoritywest.gov"/>
               <use value="work"/>
            </telecom>
            <telecom>
               <system value="url"/>
               <value value="https://www.healthauthoritywest.gov"/>
               <use value="work"/>
            </telecom>
            <address>
               <use value="work"/>
               <line value="7777 Health Authority Drive"/>
               <city value="Ann Arbor"/>
               <state value="MI"/>
               <postalCode value="99999"/>
            </address>
         </Organization>
      </resource>
   </entry>
   <entry>
      <fullUrl value="urn:uuid:45d0d728-3b45-4634-a4e8-5ac8d686b32a"/>
      <resource>
         <Organization>
            <meta>
               <profile value="http://hl7.org/fhir/us/ecr/StructureDefinition/rr-routing-entity-organization"/>
            </meta>
            <!--participant[LOC]-->
            <identifier>
               <system value="http://hl7.org/fhir/sid/us-npi"/>
               <value value="43214321"/>
            </identifier>
            <active value="true"/>
            <type>
               <coding>
                  <system value="urn:oid:2.16.840.1.114222.4.5.232"/>
                  <code value="RR7"/>
                  <display value="Routing Entity"/>
               </coding>
            </type>
            <name value="State Department of Health Routing Agency"/>
            <telecom>
               <system value="phone"/>
               <value value="+1-555-555-3555"/>
               <use value="work"/>
            </telecom>
            <telecom>
               <system value="fax"/>
               <value value="+1-955-555-3555"/>
               <use value="work"/>
            </telecom>
            <telecom>
               <system value="email"/>
               <value value="mail@healthauthoritywest.gov"/>
               <use value="work"/>
            </telecom>
            <telecom>
               <system value="url"/>
               <value value="https://www.healthauthoritywest.gov"/>
               <use value="work"/>
            </telecom>
            <address>
               <use value="work"/>
               <line value="7777 Health Authority Drive"/>
               <city value="Ann Arbor"/>
               <state value="MI"/>
               <postalCode value="99999"/>
            </address>
         </Organization>
      </resource>
   </entry>
</Bundle>
