<?xml version="1.0" encoding="UTF-8"?>
<Bundle xmlns="http://hl7.org/fhir">
  <id value="bundle-eicr-document-zika" />
  <meta>
    <profile value="http://hl7.org/fhir/us/ecr/StructureDefinition/eicr-document-bundle" />
  </meta>
  <identifier>
    <system value="urn:ietf:rfc:3986" />
    <value value="urn:uuid:dee8de2d-befd-4142-98a4-bd504d3f8514" />
  </identifier>
  <type value="document" />
  <timestamp value="2018-11-07T09:44:21.666-05:00" />
  <entry>
    <fullUrl value="urn:uuid:37ff6d09-f12a-4175-b09b-b558fc328593" />
    <resource>
      <Composition>
        <meta>
          <profile value="http://hl7.org/fhir/us/ecr/StructureDefinition/eicr-composition" />
          <!--CDA templateId: urn:hl7ii:2.16.840.1.113883.10.20.15.2:2019-04-01-->
        </meta>
        <language value="en-US" />
        <text>
          <status value="generated" />
          <div xmlns="http://www.w3.org/1999/xhtml" lang="en-US">
            <table xmlns:xsl="http://www.w3.org/1999/XSL/Transform">
              <tr>
                <td style="font-weight: bold">meta</td>
                <td>
                  <table>
                    <tr>
                      <td style="font-weight: bold">profile</td>
                      <td>
                        <div title="profile">http://hl7.org/fhir/us/ecr/StructureDefinition/eicr-composition</div>
                      </td>
                    </tr>
                  </table>
                </td>
              </tr>
              <tr>
                <td style="font-weight: bold">language</td>
                <td>
                  <div title="language">en-US</div>
                </td>
              </tr>
              <tr>
                <td style="font-weight: bold">composition-clinicaldocument-versionNumber</td>
                <td>
                  <ul style="list-style:none; padding-left:0; margin:0 0;">
                    <li>
                      <div title="valueString">2</div>
                    </li>
                  </ul>
                </td>
              </tr>
              <tr>
                <td style="font-weight: bold">identifier</td>
                <td>
                  <ul style="list-style:none; padding-left:0; margin:0 0;">
                    <li>
                      <div title="system">urn:ietf:rfc:3986</div>
                    </li>
                    <li>
                      <div title="value">urn:uuid:dce56a8a-c0f8-40f2-97dc-2688a9e49cbb</div>
                    </li>
                  </ul>
                </td>
              </tr>
              <tr>
                <td style="font-weight: bold">status</td>
                <td>
                  <div title="status">final</div>
                </td>
              </tr>
              <tr>
                <td style="font-weight: bold">type</td>
                <td>
                  <ul style="list-style:none; padding-left:0; margin:0 0;">
                    <li>
                      <ul style="list-style:none; padding-left:0; margin:0 0;">
                        <li>
                          <div title="display">Public Health Case Report</div>  (<div title="code">55751-2</div> )
          </li>
                        <li>
                          <div title="system">
                            <a href="http://loinc.org">http://loinc.org</a>
                          </div>
                        </li>
                      </ul>
                    </li>
                  </ul>
                </td>
              </tr>
              <tr>
                <td style="font-weight: bold">subject</td>
                <td>
                  <ul style="list-style:none; padding-left:0; margin:0 0;">
                    <li>
                      <a href="urn:uuid:623cfa69-d346-4077-ab8b-a87e21ee7161">urn:uuid:623cfa69-d346-4077-ab8b-a87e21ee7161</a>
                    </li>
                  </ul>
                </td>
              </tr>
              <tr>
                <td style="font-weight: bold">encounter</td>
                <td>
                  <ul style="list-style:none; padding-left:0; margin:0 0;">
                    <li>
                      <a href="urn:uuid:615e58ba-7101-4a59-9705-a8ac5419bfb7">urn:uuid:615e58ba-7101-4a59-9705-a8ac5419bfb7</a>
                    </li>
                  </ul>
                </td>
              </tr>
              <tr>
                <td style="font-weight: bold">date</td>
                <td>
                  <div title="date">2018-11-07T09:44:21.666-05:00</div>
                </td>
              </tr>
              <tr>
                <td style="font-weight: bold">author</td>
                <td>
                  <ul style="list-style:none; padding-left:0; margin:0 0;">
                    <li>
                      <a href="urn:uuid:b17760e1-2092-4b7a-ac06-dc17bda45652">urn:uuid:b17760e1-2092-4b7a-ac06-dc17bda45652</a>
                    </li>
                  </ul>
                </td>
              </tr>
              <tr>
                <td style="font-weight: bold">title</td>
                <td>
                  <div title="title">Initial Public Health Case Report</div>
                </td>
              </tr>
              <tr>
                <td style="font-weight: bold">confidentiality</td>
                <td>
                  <div title="confidentiality">N</div>
                </td>
              </tr>
              <tr>
                <td style="font-weight: bold">custodian</td>
                <td>
                  <ul style="list-style:none; padding-left:0; margin:0 0;">
                    <li>
                      <a href="urn:uuid:6158b76c-451e-4c25-b54e-47b17e13b177">urn:uuid:6158b76c-451e-4c25-b54e-47b17e13b177</a>
                    </li>
                  </ul>
                </td>
              </tr>
              <tr>
                <td style="font-weight: bold">relatesTo</td>
                <td>
                  <table>
                    <tr>
                      <td style="font-weight: bold">code</td>
                      <td>
                        <div title="code">transforms</div>
                      </td>
                    </tr>
                    <tr>
                      <td style="font-weight: bold">targetIdentifier</td>
                      <td>
                        <table>
                          <tr>
                            <td style="font-weight: bold">system</td>
                            <td>
                              <div title="system">urn:oid:2.16.840.1.113883.9.9.9.9.9</div>
                            </td>
                          </tr>
                          <tr>
                            <td style="font-weight: bold">value</td>
                            <td>
                              <div title="value">db734647-fc99-424c-a864-7e3cda82e704</div>
                            </td>
                          </tr>
                        </table>
                      </td>
                    </tr>
                  </table>
                </td>
              </tr>
              <tr>
                <td style="font-weight: bold">section</td>
                <td>
                  <table>
                    <tr>
                      <td style="font-weight: bold">title</td>
                      <td>
                        <div title="title">Plan of Treatment</div>
                      </td>
                    </tr>
                    <tr>
                      <td style="font-weight: bold">code</td>
                      <td>
                        <ul style="list-style:none; padding-left:0; margin:0 0;">
                          <li>
                            <ul style="list-style:none; padding-left:0; margin:0 0;">
                              <li>
                                <div title="display">Plan of care note</div>  (<div title="code">18776-5</div> )
          </li>
                              <li>
                                <div title="system">
                                  <a href="http://loinc.org">http://loinc.org</a>
                                </div>
                              </li>
                            </ul>
                          </li>
                        </ul>
                      </td>
                    </tr>
                    <tr>
                      <td style="font-weight: bold">entry</td>
                      <td>
                        <ul style="list-style:none; padding-left:0; margin:0 0;">
                          <li>
                            <b>Trigger code</b>
                          </li>
                          <li>Trigger Code: </li>
                          <li>Trigger Code Display: </li>
                          <li>Trigger Code System: </li>
                          <li>Trigger Code Value Set: urn:oid:2.16.840.1.114222.4.11.7508</li>
                          <li>Trigger Code Value Set Version: 12/12/2018</li>
                        </ul>
                        <a href="urn:uuid:8b8b0c81-02bf-4563-bc4d-d708a1ae40c8">urn:uuid:8b8b0c81-02bf-4563-bc4d-d708a1ae40c8</a>
                      </td>
                    </tr>
                  </table>
                </td>
              </tr>
              <tr>
                <td style="font-weight: bold">section</td>
                <td>
                  <table>
                    <tr>
                      <td style="font-weight: bold">title</td>
                      <td>
                        <div title="title">History of Present Illness</div>
                      </td>
                    </tr>
                    <tr>
                      <td style="font-weight: bold">code</td>
                      <td>
                        <ul style="list-style:none; padding-left:0; margin:0 0;">
                          <li>
                            <ul style="list-style:none; padding-left:0; margin:0 0;">
                              <li>
                                <div title="display">History of Present illness Narrative</div>  (<div title="code">10164-2</div> )
          </li>
                              <li>
                                <div title="system">
                                  <a href="http://loinc.org">http://loinc.org</a>
                                </div>
                              </li>
                            </ul>
                          </li>
                        </ul>
                      </td>
                    </tr>
                    <tr>
                      <td class="text-no-entries" colspan="2">
                        <p> Persistent Cough REPORTED starting on 2018/10/05<br /> Whooping Respiration not reported<br /> Paroxysms Of
                            Coughing REPORTED starting on 2018/11/04<br /> Post-tussive vomiting not reported<br />
                        </p>
                      </td>
                    </tr>
                  </table>
                </td>
              </tr>
              <tr>
                <td style="font-weight: bold">section</td>
                <td>
                  <table>
                    <tr>
                      <td style="font-weight: bold">title</td>
                      <td>
                        <div title="title">Medications Administered</div>
                      </td>
                    </tr>
                    <tr>
                      <td style="font-weight: bold">code</td>
                      <td>
                        <ul style="list-style:none; padding-left:0; margin:0 0;">
                          <li>
                            <ul style="list-style:none; padding-left:0; margin:0 0;">
                              <li>
                                <div title="display">Medication administered Narrative</div>  (<div title="code">29549-3</div> )
          </li>
                              <li>
                                <div title="system">
                                  <a href="http://loinc.org">http://loinc.org</a>
                                </div>
                              </li>
                            </ul>
                          </li>
                        </ul>
                      </td>
                    </tr>
                    <tr>
                      <td style="font-weight: bold">entry</td>
                      <td>
                        <ul style="list-style:none; padding-left:0; margin:0 0;">
                          <li>
                            <b>Trigger code</b>
                          </li>
                          <li>Trigger Code: </li>
                          <li>Trigger Code Display: </li>
                          <li>Trigger Code System: </li>
                          <li>Trigger Code Value Set: urn:oid:2.16.840.1.114222.4.11.7508</li>
                          <li>Trigger Code Value Set Version: 12/12/2018</li>
                        </ul>
                        <a href="urn:uuid:5f922868-b55f-4cd7-8ff4-287404b50ede">urn:uuid:5f922868-b55f-4cd7-8ff4-287404b50ede</a>
                      </td>
                    </tr>
                  </table>
                </td>
              </tr>
              <tr>
                <td style="font-weight: bold">section</td>
                <td>
                  <table>
                    <tr>
                      <td style="font-weight: bold">title</td>
                      <td>
                        <div title="title">Problems</div>
                      </td>
                    </tr>
                    <tr>
                      <td style="font-weight: bold">code</td>
                      <td>
                        <ul style="list-style:none; padding-left:0; margin:0 0;">
                          <li>
                            <ul style="list-style:none; padding-left:0; margin:0 0;">
                              <li>
                                <div title="display">Problem list - Reported</div>  (<div title="code">11450-4</div> )
          </li>
                              <li>
                                <div title="system">
                                  <a href="http://loinc.org">http://loinc.org</a>
                                </div>
                              </li>
                            </ul>
                          </li>
                        </ul>
                      </td>
                    </tr>
                    <tr>
                      <td style="font-weight: bold">entry</td>
                      <td>
                        <a href="urn:uuid:abb7b962-e338-4880-9ead-ffb9f8373bc7">urn:uuid:abb7b962-e338-4880-9ead-ffb9f8373bc7</a>
                      </td>
                    </tr>
                    <tr>
                      <td style="font-weight: bold">entry</td>
                      <td>
                        <a href="urn:uuid:4bcfc621-9d14-4634-93ed-93edd7b4977d">urn:uuid:4bcfc621-9d14-4634-93ed-93edd7b4977d</a>
                      </td>
                    </tr>
                    <tr>
                      <td style="font-weight: bold">entry</td>
                      <td>
                        <a href="urn:uuid:b2462560-b4aa-4573-9250-62b5143eaa63">urn:uuid:b2462560-b4aa-4573-9250-62b5143eaa63</a>
                      </td>
                    </tr>
                    <tr>
                      <td style="font-weight: bold">entry</td>
                      <td>
                        <a href="urn:uuid:c188fa35-9550-4172-8ece-adf28866e2b8">urn:uuid:c188fa35-9550-4172-8ece-adf28866e2b8</a>
                      </td>
                    </tr>
                  </table>
                </td>
              </tr>
              <tr>
                <td style="font-weight: bold">section</td>
                <td>
                  <table>
                    <tr>
                      <td style="font-weight: bold">title</td>
                      <td>
                        <div title="title">Reason for Visit</div>
                      </td>
                    </tr>
                    <tr>
                      <td style="font-weight: bold">code</td>
                      <td>
                        <ul style="list-style:none; padding-left:0; margin:0 0;">
                          <li>
                            <ul style="list-style:none; padding-left:0; margin:0 0;">
                              <li>
                                <div title="display">Reason for visit</div>  (<div title="code">29299-5</div> )
          </li>
                              <li>
                                <div title="system">
                                  <a href="http://loinc.org">http://loinc.org</a>
                                </div>
                              </li>
                            </ul>
                          </li>
                        </ul>
                      </td>
                    </tr>
                    <tr>
                      <td class="text-no-entries" colspan="2">
                        <p>Dark stools</p>
                      </td>
                    </tr>
                  </table>
                </td>
              </tr>
              <tr>
                <td style="font-weight: bold">section</td>
                <td>
                  <table>
                    <tr>
                      <td style="font-weight: bold">title</td>
                      <td>
                        <div title="title">Results</div>
                      </td>
                    </tr>
                    <tr>
                      <td style="font-weight: bold">code</td>
                      <td>
                        <ul style="list-style:none; padding-left:0; margin:0 0;">
                          <li>
                            <ul style="list-style:none; padding-left:0; margin:0 0;">
                              <li>
                                <div title="display">Relevant diagnostic tests/laboratory data Narrative</div>  (<div title="code">30954-2</div> )
          </li>
                              <li>
                                <div title="system">
                                  <a href="http://loinc.org">http://loinc.org</a>
                                </div>
                              </li>
                            </ul>
                          </li>
                        </ul>
                      </td>
                    </tr>
                    <tr>
                      <td style="font-weight: bold">entry</td>
                      <td>
                        <ul style="list-style:none; padding-left:0; margin:0 0;">
                          <li>
                            <b>Trigger code</b>
                          </li>
                          <li>Trigger Code: </li>
                          <li>Trigger Code Display: </li>
                          <li>Trigger Code System: </li>
                          <li>Trigger Code Value Set: urn:oid:2.16.840.1.114222.4.11.7508</li>
                          <li>Trigger Code Value Set Version: 12/12/2018</li>
                        </ul>
                        <a href="urn:uuid:8831efb8-52e6-4691-9377-ad9f0a8a02cc">urn:uuid:8831efb8-52e6-4691-9377-ad9f0a8a02cc</a>
                      </td>
                    </tr>
                    <tr>
                      <td style="font-weight: bold">entry</td>
                      <td>
                        <ul style="list-style:none; padding-left:0; margin:0 0;">
                          <li>
                            <b>Trigger code</b>
                          </li>
                          <li>Trigger Code: </li>
                          <li>Trigger Code Display: </li>
                          <li>Trigger Code System: </li>
                          <li>Trigger Code Value Set: urn:oid:2.16.840.1.114222.4.11.7508</li>
                          <li>Trigger Code Value Set Version: 12/12/2018</li>
                        </ul>
                        <a href="urn:uuid:cd7f2bae-db9f-480f-80c6-8b4f9494bc3d">urn:uuid:cd7f2bae-db9f-480f-80c6-8b4f9494bc3d</a>
                      </td>
                    </tr>
                    <tr>
                      <td style="font-weight: bold">entry</td>
                      <td>
                        <ul style="list-style:none; padding-left:0; margin:0 0;">
                          <li>
                            <b>Trigger code</b>
                          </li>
                          <li>Trigger Code: </li>
                          <li>Trigger Code Display: </li>
                          <li>Trigger Code System: </li>
                          <li>Trigger Code Value Set: urn:oid:2.16.840.1.114222.4.11.7508</li>
                          <li>Trigger Code Value Set Version: 12/12/2018</li>
                        </ul>
                        <ul style="list-style:none; padding-left:0; margin:0 0;">
                          <li>
                            <b>Trigger code</b>
                          </li>
                          <li>Trigger Code: </li>
                          <li>Trigger Code Display: </li>
                          <li>Trigger Code System: </li>
                          <li>Trigger Code Value Set: urn:oid:2.16.840.1.114222.4.11.7508</li>
                          <li>Trigger Code Value Set Version: 12/12/2018</li>
                        </ul>
                        <a href="urn:uuid:d8261bf5-c789-43af-bd62-7d4a56b96288">urn:uuid:d8261bf5-c789-43af-bd62-7d4a56b96288</a>
                      </td>
                    </tr>
                  </table>
                </td>
              </tr>
              <tr>
                <td style="font-weight: bold">section</td>
                <td>
                  <table>
                    <tr>
                      <td style="font-weight: bold">title</td>
                      <td>
                        <div title="title">Immunizations</div>
                      </td>
                    </tr>
                    <tr>
                      <td style="font-weight: bold">code</td>
                      <td>
                        <ul style="list-style:none; padding-left:0; margin:0 0;">
                          <li>
                            <ul style="list-style:none; padding-left:0; margin:0 0;">
                              <li>
                                <div title="display">Hx of Immunization</div>  (<div title="code">11369-6</div> )
          </li>
                              <li>
                                <div title="system">
                                  <a href="http://loinc.org">http://loinc.org</a>
                                </div>
                              </li>
                            </ul>
                          </li>
                        </ul>
                      </td>
                    </tr>
                    <tr>
                      <td style="font-weight: bold">entry</td>
                      <td>
                        <a href="urn:uuid:ffc34a5e-8293-47fc-97cc-461479b7657a">urn:uuid:ffc34a5e-8293-47fc-97cc-461479b7657a</a>
                      </td>
                    </tr>
                    <tr>
                      <td style="font-weight: bold">entry</td>
                      <td>
                        <ul style="list-style:none; padding-left:0; margin:0 0;">
                          <li>
                            <b>Trigger code</b>
                          </li>
                          <li>Trigger Code: </li>
                          <li>Trigger Code Display: </li>
                          <li>Trigger Code System: </li>
                          <li>Trigger Code Value Set: urn:oid:2.16.840.1.114222.4.11.7508</li>
                          <li>Trigger Code Value Set Version: 12/12/2018</li>
                        </ul>
                        <a href="urn:uuid:77fe9b7d-bfb1-41f3-831a-fc4afdd090cc">urn:uuid:77fe9b7d-bfb1-41f3-831a-fc4afdd090cc</a>
                      </td>
                    </tr>
                  </table>
                </td>
              </tr>
              <tr>
                <td style="font-weight: bold">section</td>
                <td>
                  <table>
                    <tr>
                      <td style="font-weight: bold">title</td>
                      <td>
                        <div title="title">Social History</div>
                      </td>
                    </tr>
                    <tr>
                      <td style="font-weight: bold">code</td>
                      <td>
                        <ul style="list-style:none; padding-left:0; margin:0 0;">
                          <li>
                            <ul style="list-style:none; padding-left:0; margin:0 0;">
                              <li>
                                <div title="display">Social history Narrative</div>  (<div title="code">29762-2</div> )
          </li>
                              <li>
                                <div title="system">
                                  <a href="http://loinc.org">http://loinc.org</a>
                                </div>
                              </li>
                            </ul>
                          </li>
                        </ul>
                      </td>
                    </tr>
                    <tr>
                      <td style="font-weight: bold">entry</td>
                      <td>
                        <a href="urn:uuid:b002a347-c99d-42b7-8296-e10c5fa1739d">urn:uuid:b002a347-c99d-42b7-8296-e10c5fa1739d</a>
                      </td>
                    </tr>
                    <tr>
                      <td style="font-weight: bold">entry</td>
                      <td>
                        <a href="urn:uuid:97585031-0d53-4a74-b861-22670be5c7ae">urn:uuid:97585031-0d53-4a74-b861-22670be5c7ae</a>
                      </td>
                    </tr>
                    <tr>
                      <td style="font-weight: bold">entry</td>
                      <td>
                        <a href="urn:uuid:b40b399c-f7bd-42b3-906b-dec8a60bf969">urn:uuid:b40b399c-f7bd-42b3-906b-dec8a60bf969</a>
                      </td>
                    </tr>
                    <tr>
                      <td style="font-weight: bold">entry</td>
                      <td>
                        <a href="urn:uuid:6449d570-c711-47a4-945f-435b30242ad4">urn:uuid:6449d570-c711-47a4-945f-435b30242ad4</a>
                      </td>
                    </tr>
                    <tr>
                      <td style="font-weight: bold">entry</td>
                      <td>
                        <a href="urn:uuid:161c5cc2-8700-432c-acbd-99f58640e046">urn:uuid:161c5cc2-8700-432c-acbd-99f58640e046</a>
                      </td>
                    </tr>
                    <tr>
                      <td style="font-weight: bold">entry</td>
                      <td>
                        <a href="urn:uuid:daddba2a-2728-4ffa-b014-c9998da34427">urn:uuid:daddba2a-2728-4ffa-b014-c9998da34427</a>
                      </td>
                    </tr>
                    <tr>
                      <td style="font-weight: bold">entry</td>
                      <td>
                        <a href="urn:uuid:f127ccf0-d118-400b-a087-fff900924af8">urn:uuid:f127ccf0-d118-400b-a087-fff900924af8</a>
                      </td>
                    </tr>
                    <tr>
                      <td style="font-weight: bold">entry</td>
                      <td>
                        <a href="urn:uuid:4331aea8-3f56-40fe-aa0a-5b6a4841a7b7">urn:uuid:4331aea8-3f56-40fe-aa0a-5b6a4841a7b7</a>
                      </td>
                    </tr>
                    <tr>
                      <td style="font-weight: bold">entry</td>
                      <td>
                        <a href="urn:uuid:fd7f788b-7b31-4355-a8f0-466bf987dc72">urn:uuid:fd7f788b-7b31-4355-a8f0-466bf987dc72</a>
                      </td>
                    </tr>
                  </table>
                </td>
              </tr>
              <tr>
                <td style="font-weight: bold">section</td>
                <td>
                  <table>
                    <tr>
                      <td style="font-weight: bold">title</td>
                      <td>
                        <div title="title">Pregnancy Section</div>
                      </td>
                    </tr>
                    <tr>
                      <td style="font-weight: bold">code</td>
                      <td>
                        <ul style="list-style:none; padding-left:0; margin:0 0;">
                          <li>
                            <ul style="list-style:none; padding-left:0; margin:0 0;">
                              <li>
                                <div title="display">Pregnancy summary Document</div>  (<div title="code">90767-5</div> )
          </li>
                              <li>
                                <div title="system">
                                  <a href="http://loinc.org">http://loinc.org</a>
                                </div>
                              </li>
                            </ul>
                          </li>
                        </ul>
                      </td>
                    </tr>
                    <tr>
                      <td style="font-weight: bold">entry</td>
                      <td>
                        <a href="urn:uuid:6090b393-1bde-4601-b5ff-ce52ba0529d7">urn:uuid:6090b393-1bde-4601-b5ff-ce52ba0529d7</a>
                      </td>
                    </tr>
                    <tr>
                      <td style="font-weight: bold">entry</td>
                      <td>
                        <a href="urn:uuid:6f322473-bc9d-4438-9077-d6f816b5d98f">urn:uuid:6f322473-bc9d-4438-9077-d6f816b5d98f</a>
                      </td>
                    </tr>
                    <tr>
                      <td style="font-weight: bold">entry</td>
                      <td>
                        <a href="urn:uuid:b4834980-3529-4616-847b-28c2cff76fb0">urn:uuid:b4834980-3529-4616-847b-28c2cff76fb0</a>
                      </td>
                    </tr>
                  </table>
                </td>
              </tr>
              <tr>
                <td style="font-weight: bold">section</td>
                <td>
                  <table>
                    <tr>
                      <td style="font-weight: bold">title</td>
                      <td>
                        <div title="title">Vital Signs (Last Filed)</div>
                      </td>
                    </tr>
                    <tr>
                      <td style="font-weight: bold">code</td>
                      <td>
                        <ul style="list-style:none; padding-left:0; margin:0 0;">
                          <li>
                            <ul style="list-style:none; padding-left:0; margin:0 0;">
                              <li>
                                <div title="display">Vital Signs</div>  (<div title="code">8716-3</div> )
          </li>
                              <li>
                                <div title="system">
                                  <a href="http://loinc.org">http://loinc.org</a>
                                </div>
                              </li>
                            </ul>
                          </li>
                        </ul>
                      </td>
                    </tr>
                    <tr>
                      <td style="font-weight: bold">entry</td>
                      <td>
                        <a href="urn:uuid:26e4f9d1-9b7a-4688-8aa5-85104502e7f6">urn:uuid:26e4f9d1-9b7a-4688-8aa5-85104502e7f6</a>
                      </td>
                    </tr>
                  </table>
                </td>
              </tr>
            </table>
          </div>
        </text>
        <extension url="http://hl7.org/fhir/StructureDefinition/composition-clinicaldocument-versionNumber">
          <valueString value="2" />
        </extension>
        <identifier>
          <system value="urn:ietf:rfc:3986" />
          <value value="urn:uuid:dce56a8a-c0f8-40f2-97dc-2688a9e49cbb" />
        </identifier>
        <status value="final" />
        <type>
          <coding>
            <system value="http://loinc.org" />
            <code value="55751-2" />
            <display value="Public Health Case Report" />
          </coding>
        </type>
        <subject>
          <reference value="urn:uuid:623cfa69-d346-4077-ab8b-a87e21ee7161" />
        </subject>
        <encounter>
          <reference value="urn:uuid:615e58ba-7101-4a59-9705-a8ac5419bfb7" />
        </encounter>
        <date value="2018-11-07T09:44:21.666-05:00" />
        <author>
          <reference value="urn:uuid:b17760e1-2092-4b7a-ac06-dc17bda45652" />
        </author>
        <title value="Initial Public Health Case Report" />
        <confidentiality value="N" />
        <custodian>
          <reference value="urn:uuid:6158b76c-451e-4c25-b54e-47b17e13b177" />
        </custodian>
        <relatesTo>
          <code value="transforms" />
          <targetIdentifier>
            <system value="urn:oid:2.16.840.1.113883.9.9.9.9.9" />
            <value value="db734647-fc99-424c-a864-7e3cda82e704" />
          </targetIdentifier>
        </relatesTo>
        <section>
          <title value="Plan of Treatment" />
          <code>
            <coding>
              <system value="http://loinc.org" />
              <code value="18776-5" />
              <display value="Plan of care note" />
            </coding>
          </code>
          <text>
            <status value="generated" />
            <div xmlns="http://www.w3.org/1999/xhtml" lang="en-US">
              <table xmlns:xsl="http://www.w3.org/1999/XSL/Transform">
                <tr>
                  <td style="font-weight: bold">title</td>
                  <td>
                    <div title="title">Plan of Treatment</div>
                  </td>
                </tr>
                <tr>
                  <td style="font-weight: bold">code</td>
                  <td>
                    <ul style="list-style:none; padding-left:0; margin:0 0;">
                      <li>
                        <ul style="list-style:none; padding-left:0; margin:0 0;">
                          <li>
                            <div title="display">Plan of care note</div>  (<div title="code">18776-5</div> )
          </li>
                          <li>
                            <div title="system">
                              <a href="http://loinc.org">http://loinc.org</a>
                            </div>
                          </li>
                        </ul>
                      </li>
                    </ul>
                  </td>
                </tr>
                <tr>
                  <td style="font-weight: bold">entry</td>
                  <td>
                    <ul style="list-style:none; padding-left:0; margin:0 0;">
                      <li>
                        <b>Trigger code</b>
                      </li>
                      <li>Trigger Code: </li>
                      <li>Trigger Code Display: </li>
                      <li>Trigger Code System: </li>
                      <li>Trigger Code Value Set: urn:oid:2.16.840.1.114222.4.11.7508</li>
                      <li>Trigger Code Value Set Version: 12/12/2018</li>
                    </ul>
                    <a href="urn:uuid:8b8b0c81-02bf-4563-bc4d-d708a1ae40c8">urn:uuid:8b8b0c81-02bf-4563-bc4d-d708a1ae40c8</a>
                  </td>
                </tr>
              </table>
            </div>
          </text>
          <!--2.16.840.1.113883.10.20.22.4.44-->
          <!--2.16.840.1.113883.10.20.22.4.44:2014-06-09-->
          <!--2.16.840.1.113883.10.20.15.2.3.4:2019-04-01-->
          <entry>
            <extension url="http://hl7.org/fhir/us/ecr/StructureDefinition/eicr-trigger-code-flag-extension">
              <extension url="triggerCodeValueSet">
                <valueOid value="urn:oid:2.16.840.1.114222.4.11.7508" />
              </extension>
              <extension url="triggerCodeValueSetVersion">
                <valueString value="12/12/2018" />
              </extension>
              <extension url="triggerCode">
                <valueCoding>
                  <system value="http://loinc.org" />
                  <code value="80825-3" />
                  <display value="Zika virus envelope E gene [Presence] in Serum by NAA with probe detection" />
                </valueCoding>
              </extension>
            </extension>
            <reference value="urn:uuid:8b8b0c81-02bf-4563-bc4d-d708a1ae40c8" />
          </entry>
        </section>
        <section>
          <title value="History of Present Illness" />
          <code>
            <coding>
              <system value="http://loinc.org" />
              <code value="10164-2" />
              <display value="History of Present illness Narrative" />
            </coding>
          </code>
          <text>
            <status value="generated" />
            <div xmlns="http://www.w3.org/1999/xhtml" lang="en-US">
              <table xmlns:xsl="http://www.w3.org/1999/XSL/Transform">
                <tr>
                  <td style="font-weight: bold">title</td>
                  <td>
                    <div title="title">History of Present Illness</div>
                  </td>
                </tr>
                <tr>
                  <td style="font-weight: bold">code</td>
                  <td>
                    <ul style="list-style:none; padding-left:0; margin:0 0;">
                      <li>
                        <ul style="list-style:none; padding-left:0; margin:0 0;">
                          <li>
                            <div title="display">History of Present illness Narrative</div>  (<div title="code">10164-2</div> )
          </li>
                          <li>
                            <div title="system">
                              <a href="http://loinc.org">http://loinc.org</a>
                            </div>
                          </li>
                        </ul>
                      </li>
                    </ul>
                  </td>
                </tr>
                <tr>
                  <td class="text-no-entries" colspan="2">
                    <p> Persistent Cough REPORTED starting on 2018/10/05<br /> Whooping Respiration not reported<br /> Paroxysms Of
                            Coughing REPORTED starting on 2018/11/04<br /> Post-tussive vomiting not reported<br />
                    </p>
                  </td>
                </tr>
              </table>
            </div>
          </text>
        </section>
        <section>
          <title value="Medications Administered" />
          <code>
            <coding>
              <system value="http://loinc.org" />
              <code value="29549-3" />
              <display value="Medication administered Narrative" />
            </coding>
          </code>
          <text>
            <status value="generated" />
            <div xmlns="http://www.w3.org/1999/xhtml" lang="en-US">
              <table xmlns:xsl="http://www.w3.org/1999/XSL/Transform">
                <tr>
                  <td style="font-weight: bold">title</td>
                  <td>
                    <div title="title">Medications Administered</div>
                  </td>
                </tr>
                <tr>
                  <td style="font-weight: bold">code</td>
                  <td>
                    <ul style="list-style:none; padding-left:0; margin:0 0;">
                      <li>
                        <ul style="list-style:none; padding-left:0; margin:0 0;">
                          <li>
                            <div title="display">Medication administered Narrative</div>  (<div title="code">29549-3</div> )
          </li>
                          <li>
                            <div title="system">
                              <a href="http://loinc.org">http://loinc.org</a>
                            </div>
                          </li>
                        </ul>
                      </li>
                    </ul>
                  </td>
                </tr>
                <tr>
                  <td style="font-weight: bold">entry</td>
                  <td>
                    <ul style="list-style:none; padding-left:0; margin:0 0;">
                      <li>
                        <b>Trigger code</b>
                      </li>
                      <li>Trigger Code: </li>
                      <li>Trigger Code Display: </li>
                      <li>Trigger Code System: </li>
                      <li>Trigger Code Value Set: urn:oid:2.16.840.1.114222.4.11.7508</li>
                      <li>Trigger Code Value Set Version: 12/12/2018</li>
                    </ul>
                    <a href="urn:uuid:5f922868-b55f-4cd7-8ff4-287404b50ede">urn:uuid:5f922868-b55f-4cd7-8ff4-287404b50ede</a>
                  </td>
                </tr>
              </table>
            </div>
          </text>
          <!--2.16.840.1.113883.10.20.22.4.16-->
          <!--2.16.840.1.113883.10.20.22.4.16:2014-06-09-->
          <entry>
            <extension url="http://hl7.org/fhir/us/ecr/StructureDefinition/eicr-trigger-code-flag-extension">
              <extension url="triggerCodeValueSet">
                <valueOid value="urn:oid:2.16.840.1.114222.4.11.7508" />
              </extension>
              <extension url="triggerCodeValueSetVersion">
                <valueString value="12/12/2018" />
              </extension>
              <extension url="triggerCode">
                <valueCoding>
                  <system value="http://www.nlm.nih.gov/research/umls/rxnorm" />
                  <code value="248656" />
                  <display value="Azithromycin 500 MG Oral Tablet" />
                </valueCoding>
              </extension>
            </extension>
            <reference value="urn:uuid:5f922868-b55f-4cd7-8ff4-287404b50ede" />
          </entry>
        </section>
        <section>
          <title value="Problems" />
          <code>
            <coding>
              <system value="http://loinc.org" />
              <code value="11450-4" />
              <display value="Problem list - Reported" />
            </coding>
          </code>
          <text>
            <status value="generated" />
            <div xmlns="http://www.w3.org/1999/xhtml" lang="en-US">
              <table xmlns:xsl="http://www.w3.org/1999/XSL/Transform">
                <tr>
                  <td style="font-weight: bold">title</td>
                  <td>
                    <div title="title">Problems</div>
                  </td>
                </tr>
                <tr>
                  <td style="font-weight: bold">code</td>
                  <td>
                    <ul style="list-style:none; padding-left:0; margin:0 0;">
                      <li>
                        <ul style="list-style:none; padding-left:0; margin:0 0;">
                          <li>
                            <div title="display">Problem list - Reported</div>  (<div title="code">11450-4</div> )
          </li>
                          <li>
                            <div title="system">
                              <a href="http://loinc.org">http://loinc.org</a>
                            </div>
                          </li>
                        </ul>
                      </li>
                    </ul>
                  </td>
                </tr>
                <tr>
                  <td style="font-weight: bold">entry</td>
                  <td>
                    <a href="urn:uuid:abb7b962-e338-4880-9ead-ffb9f8373bc7">urn:uuid:abb7b962-e338-4880-9ead-ffb9f8373bc7</a>
                  </td>
                </tr>
                <tr>
                  <td style="font-weight: bold">entry</td>
                  <td>
                    <a href="urn:uuid:4bcfc621-9d14-4634-93ed-93edd7b4977d">urn:uuid:4bcfc621-9d14-4634-93ed-93edd7b4977d</a>
                  </td>
                </tr>
                <tr>
                  <td style="font-weight: bold">entry</td>
                  <td>
                    <a href="urn:uuid:b2462560-b4aa-4573-9250-62b5143eaa63">urn:uuid:b2462560-b4aa-4573-9250-62b5143eaa63</a>
                  </td>
                </tr>
                <tr>
                  <td style="font-weight: bold">entry</td>
                  <td>
                    <a href="urn:uuid:c188fa35-9550-4172-8ece-adf28866e2b8">urn:uuid:c188fa35-9550-4172-8ece-adf28866e2b8</a>
                  </td>
                </tr>
              </table>
            </div>
          </text>
          <!--2.16.840.1.113883.10.20.22.4.4-->
          <!--2.16.840.1.113883.10.20.22.4.4:2015-08-01-->
          <entry>
            <reference value="urn:uuid:abb7b962-e338-4880-9ead-ffb9f8373bc7" />
          </entry>
          <!--2.16.840.1.113883.10.20.22.4.4-->
          <!--2.16.840.1.113883.10.20.22.4.4:2015-08-01-->
          <entry>
            <reference value="urn:uuid:4bcfc621-9d14-4634-93ed-93edd7b4977d" />
          </entry>
          <!--2.16.840.1.113883.10.20.22.4.4-->
          <!--2.16.840.1.113883.10.20.22.4.4:2015-08-01-->
          <entry>
            <reference value="urn:uuid:b2462560-b4aa-4573-9250-62b5143eaa63" />
          </entry>
          <!--2.16.840.1.113883.10.20.22.4.4-->
          <!--2.16.840.1.113883.10.20.22.4.4:2015-08-01-->
          <entry>
            <reference value="urn:uuid:c188fa35-9550-4172-8ece-adf28866e2b8" />
          </entry>
        </section>
        <section>
          <title value="Reason for Visit" />
          <code>
            <coding>
              <system value="http://loinc.org" />
              <code value="29299-5" />
              <display value="Reason for visit" />
            </coding>
          </code>
          <text>
            <status value="generated" />
            <div xmlns="http://www.w3.org/1999/xhtml" lang="en-US">
              <table xmlns:xsl="http://www.w3.org/1999/XSL/Transform">
                <tr>
                  <td style="font-weight: bold">title</td>
                  <td>
                    <div title="title">Reason for Visit</div>
                  </td>
                </tr>
                <tr>
                  <td style="font-weight: bold">code</td>
                  <td>
                    <ul style="list-style:none; padding-left:0; margin:0 0;">
                      <li>
                        <ul style="list-style:none; padding-left:0; margin:0 0;">
                          <li>
                            <div title="display">Reason for visit</div>  (<div title="code">29299-5</div> )
          </li>
                          <li>
                            <div title="system">
                              <a href="http://loinc.org">http://loinc.org</a>
                            </div>
                          </li>
                        </ul>
                      </li>
                    </ul>
                  </td>
                </tr>
                <tr>
                  <td class="text-no-entries" colspan="2">
                    <p>Dark stools</p>
                  </td>
                </tr>
              </table>
            </div>
          </text>
        </section>
        <section>
          <title value="Results" />
          <code>
            <coding>
              <system value="http://loinc.org" />
              <code value="30954-2" />
              <display value="Relevant diagnostic tests/laboratory data Narrative" />
            </coding>
          </code>
          <text>
            <status value="generated" />
            <div xmlns="http://www.w3.org/1999/xhtml" lang="en-US">
              <table xmlns:xsl="http://www.w3.org/1999/XSL/Transform">
                <tr>
                  <td style="font-weight: bold">title</td>
                  <td>
                    <div title="title">Results</div>
                  </td>
                </tr>
                <tr>
                  <td style="font-weight: bold">code</td>
                  <td>
                    <ul style="list-style:none; padding-left:0; margin:0 0;">
                      <li>
                        <ul style="list-style:none; padding-left:0; margin:0 0;">
                          <li>
                            <div title="display">Relevant diagnostic tests/laboratory data Narrative</div>  (<div title="code">30954-2</div> )
          </li>
                          <li>
                            <div title="system">
                              <a href="http://loinc.org">http://loinc.org</a>
                            </div>
                          </li>
                        </ul>
                      </li>
                    </ul>
                  </td>
                </tr>
                <tr>
                  <td style="font-weight: bold">entry</td>
                  <td>
                    <ul style="list-style:none; padding-left:0; margin:0 0;">
                      <li>
                        <b>Trigger code</b>
                      </li>
                      <li>Trigger Code: </li>
                      <li>Trigger Code Display: </li>
                      <li>Trigger Code System: </li>
                      <li>Trigger Code Value Set: urn:oid:2.16.840.1.114222.4.11.7508</li>
                      <li>Trigger Code Value Set Version: 12/12/2018</li>
                    </ul>
                    <a href="urn:uuid:8831efb8-52e6-4691-9377-ad9f0a8a02cc">urn:uuid:8831efb8-52e6-4691-9377-ad9f0a8a02cc</a>
                  </td>
                </tr>
                <tr>
                  <td style="font-weight: bold">entry</td>
                  <td>
                    <ul style="list-style:none; padding-left:0; margin:0 0;">
                      <li>
                        <b>Trigger code</b>
                      </li>
                      <li>Trigger Code: </li>
                      <li>Trigger Code Display: </li>
                      <li>Trigger Code System: </li>
                      <li>Trigger Code Value Set: urn:oid:2.16.840.1.114222.4.11.7508</li>
                      <li>Trigger Code Value Set Version: 12/12/2018</li>
                    </ul>
                    <a href="urn:uuid:cd7f2bae-db9f-480f-80c6-8b4f9494bc3d">urn:uuid:cd7f2bae-db9f-480f-80c6-8b4f9494bc3d</a>
                  </td>
                </tr>
                <tr>
                  <td style="font-weight: bold">entry</td>
                  <td>
                    <ul style="list-style:none; padding-left:0; margin:0 0;">
                      <li>
                        <b>Trigger code</b>
                      </li>
                      <li>Trigger Code: </li>
                      <li>Trigger Code Display: </li>
                      <li>Trigger Code System: </li>
                      <li>Trigger Code Value Set: urn:oid:2.16.840.1.114222.4.11.7508</li>
                      <li>Trigger Code Value Set Version: 12/12/2018</li>
                    </ul>
                    <ul style="list-style:none; padding-left:0; margin:0 0;">
                      <li>
                        <b>Trigger code</b>
                      </li>
                      <li>Trigger Code: </li>
                      <li>Trigger Code Display: </li>
                      <li>Trigger Code System: </li>
                      <li>Trigger Code Value Set: urn:oid:2.16.840.1.114222.4.11.7508</li>
                      <li>Trigger Code Value Set Version: 12/12/2018</li>
                    </ul>
                    <a href="urn:uuid:d8261bf5-c789-43af-bd62-7d4a56b96288">urn:uuid:d8261bf5-c789-43af-bd62-7d4a56b96288</a>
                  </td>
                </tr>
              </table>
            </div>
          </text>
          <!--2.16.840.1.113883.10.20.22.4.1-->
          <!--2.16.840.1.113883.10.20.22.4.1:2015-08-01-->
          <!--2.16.840.1.113883.10.20.15.2.3.35:2019-04-01-->
          <entry>
            <extension url="http://hl7.org/fhir/us/ecr/StructureDefinition/eicr-trigger-code-flag-extension">
              <extension url="triggerCodeValueSet">
                <valueOid value="urn:oid:2.16.840.1.114222.4.11.7508" />
              </extension>
              <extension url="triggerCodeValueSetVersion">
                <valueString value="12/12/2018" />
              </extension>
              <extension url="triggerCode">
                <valueCoding>
                  <system value="http://loinc.org" />
                  <code value="57021-8" />
                  <display value="CBC W Auto Diff Bld" />
                </valueCoding>
              </extension>
            </extension>
            <reference value="urn:uuid:8831efb8-52e6-4691-9377-ad9f0a8a02cc" />
          </entry>
          <!--2.16.840.1.113883.10.20.22.4.1-->
          <!--2.16.840.1.113883.10.20.22.4.1:2015-08-01-->
          <entry>
            <extension url="http://hl7.org/fhir/us/ecr/StructureDefinition/eicr-trigger-code-flag-extension">
              <extension url="triggerCodeValueSet">
                <valueOid value="urn:oid:2.16.840.1.114222.4.11.7508" />
              </extension>
              <extension url="triggerCodeValueSetVersion">
                <valueString value="12/12/2018" />
              </extension>
              <extension url="triggerCode">
                <valueCoding>
                  <system value="http://loinc.org" />
                  <code value="11585-7" />
                  <display value="Bordetella pertussis Ab [Units/volume] in Serum" />
                </valueCoding>
              </extension>
            </extension>
            <reference value="urn:uuid:cd7f2bae-db9f-480f-80c6-8b4f9494bc3d" />
          </entry>
          <!--2.16.840.1.113883.10.20.22.4.1-->
          <!--2.16.840.1.113883.10.20.22.4.1:2015-08-01-->
          <entry>
            <extension url="http://hl7.org/fhir/us/ecr/StructureDefinition/eicr-trigger-code-flag-extension">
              <extension url="triggerCodeValueSet">
                <valueOid value="urn:oid:2.16.840.1.114222.4.11.7508" />
              </extension>
              <extension url="triggerCodeValueSetVersion">
                <valueString value="12/12/2018" />
              </extension>
              <extension url="triggerCode">
                <valueCoding>
                  <system value="http://loinc.org" />
                  <code value="548-8" />
                  <display value="Bordetella pertussis [Presence] in Throat by Organism specific culture" />
                </valueCoding>
              </extension>
            </extension>
            <extension url="http://hl7.org/fhir/us/ecr/StructureDefinition/eicr-trigger-code-flag-extension">
              <extension url="triggerCodeValueSet">
                <valueOid value="urn:oid:2.16.840.1.114222.4.11.7508" />
              </extension>
              <extension url="triggerCodeValueSetVersion">
                <valueString value="12/12/2018" />
              </extension>
              <extension url="triggerCode">
                <valueCoding>
                  <system value="http://snomed.info/sct" />
                  <code value="5247005" />
                  <display value="Bordetella pertussis (organism)" />
                </valueCoding>
              </extension>
            </extension>
            <reference value="urn:uuid:d8261bf5-c789-43af-bd62-7d4a56b96288" />
          </entry>
        </section>
        <section>
          <title value="Immunizations" />
          <code>
            <coding>
              <system value="http://loinc.org" />
              <code value="11369-6" />
              <display value="Hx of Immunization" />
            </coding>
          </code>
          <text>
            <status value="generated" />
            <div xmlns="http://www.w3.org/1999/xhtml" lang="en-US">
              <table xmlns:xsl="http://www.w3.org/1999/XSL/Transform">
                <tr>
                  <td style="font-weight: bold">title</td>
                  <td>
                    <div title="title">Immunizations</div>
                  </td>
                </tr>
                <tr>
                  <td style="font-weight: bold">code</td>
                  <td>
                    <ul style="list-style:none; padding-left:0; margin:0 0;">
                      <li>
                        <ul style="list-style:none; padding-left:0; margin:0 0;">
                          <li>
                            <div title="display">Hx of Immunization</div>  (<div title="code">11369-6</div> )
          </li>
                          <li>
                            <div title="system">
                              <a href="http://loinc.org">http://loinc.org</a>
                            </div>
                          </li>
                        </ul>
                      </li>
                    </ul>
                  </td>
                </tr>
                <tr>
                  <td style="font-weight: bold">entry</td>
                  <td>
                    <a href="urn:uuid:ffc34a5e-8293-47fc-97cc-461479b7657a">urn:uuid:ffc34a5e-8293-47fc-97cc-461479b7657a</a>
                  </td>
                </tr>
                <tr>
                  <td style="font-weight: bold">entry</td>
                  <td>
                    <ul style="list-style:none; padding-left:0; margin:0 0;">
                      <li>
                        <b>Trigger code</b>
                      </li>
                      <li>Trigger Code: </li>
                      <li>Trigger Code Display: </li>
                      <li>Trigger Code System: </li>
                      <li>Trigger Code Value Set: urn:oid:2.16.840.1.114222.4.11.7508</li>
                      <li>Trigger Code Value Set Version: 12/12/2018</li>
                    </ul>
                    <a href="urn:uuid:77fe9b7d-bfb1-41f3-831a-fc4afdd090cc">urn:uuid:77fe9b7d-bfb1-41f3-831a-fc4afdd090cc</a>
                  </td>
                </tr>
              </table>
            </div>
          </text>
          <!--2.16.840.1.113883.10.20.22.4.52:2015-08-01-->
          <entry>
            <reference value="urn:uuid:ffc34a5e-8293-47fc-97cc-461479b7657a" />
          </entry>
          <!--2.16.840.1.113883.10.20.22.4.52:2015-08-01-->
          <entry>
            <extension url="http://hl7.org/fhir/us/ecr/StructureDefinition/eicr-trigger-code-flag-extension">
              <extension url="triggerCodeValueSet">
                <valueOid value="urn:oid:2.16.840.1.114222.4.11.7508" />
              </extension>
              <extension url="triggerCodeValueSetVersion">
                <valueString value="12/12/2018" />
              </extension>
              <extension url="triggerCode">
                <valueCoding>
                  <system value="http://hl7.org/fhir/sid/cvx" />
                  <code value="88" />
                  <display value="influenza, unspecified formulation" />
                </valueCoding>
              </extension>
            </extension>
            <reference value="urn:uuid:77fe9b7d-bfb1-41f3-831a-fc4afdd090cc" />
          </entry>
        </section>
        <section>
          <title value="Social History" />
          <code>
            <coding>
              <system value="http://loinc.org" />
              <code value="29762-2" />
              <display value="Social history Narrative" />
            </coding>
          </code>
          <text>
            <status value="generated" />
            <div xmlns="http://www.w3.org/1999/xhtml" lang="en-US">
              <table xmlns:xsl="http://www.w3.org/1999/XSL/Transform">
                <tr>
                  <td style="font-weight: bold">title</td>
                  <td>
                    <div title="title">Social History</div>
                  </td>
                </tr>
                <tr>
                  <td style="font-weight: bold">code</td>
                  <td>
                    <ul style="list-style:none; padding-left:0; margin:0 0;">
                      <li>
                        <ul style="list-style:none; padding-left:0; margin:0 0;">
                          <li>
                            <div title="display">Social history Narrative</div>  (<div title="code">29762-2</div> )
          </li>
                          <li>
                            <div title="system">
                              <a href="http://loinc.org">http://loinc.org</a>
                            </div>
                          </li>
                        </ul>
                      </li>
                    </ul>
                  </td>
                </tr>
                <tr>
                  <td style="font-weight: bold">entry</td>
                  <td>
                    <a href="urn:uuid:b002a347-c99d-42b7-8296-e10c5fa1739d">urn:uuid:b002a347-c99d-42b7-8296-e10c5fa1739d</a>
                  </td>
                </tr>
                <tr>
                  <td style="font-weight: bold">entry</td>
                  <td>
                    <a href="urn:uuid:97585031-0d53-4a74-b861-22670be5c7ae">urn:uuid:97585031-0d53-4a74-b861-22670be5c7ae</a>
                  </td>
                </tr>
                <tr>
                  <td style="font-weight: bold">entry</td>
                  <td>
                    <a href="urn:uuid:b40b399c-f7bd-42b3-906b-dec8a60bf969">urn:uuid:b40b399c-f7bd-42b3-906b-dec8a60bf969</a>
                  </td>
                </tr>
                <tr>
                  <td style="font-weight: bold">entry</td>
                  <td>
                    <a href="urn:uuid:6449d570-c711-47a4-945f-435b30242ad4">urn:uuid:6449d570-c711-47a4-945f-435b30242ad4</a>
                  </td>
                </tr>
                <tr>
                  <td style="font-weight: bold">entry</td>
                  <td>
                    <a href="urn:uuid:161c5cc2-8700-432c-acbd-99f58640e046">urn:uuid:161c5cc2-8700-432c-acbd-99f58640e046</a>
                  </td>
                </tr>
                <tr>
                  <td style="font-weight: bold">entry</td>
                  <td>
                    <a href="urn:uuid:daddba2a-2728-4ffa-b014-c9998da34427">urn:uuid:daddba2a-2728-4ffa-b014-c9998da34427</a>
                  </td>
                </tr>
                <tr>
                  <td style="font-weight: bold">entry</td>
                  <td>
                    <a href="urn:uuid:f127ccf0-d118-400b-a087-fff900924af8">urn:uuid:f127ccf0-d118-400b-a087-fff900924af8</a>
                  </td>
                </tr>
                <tr>
                  <td style="font-weight: bold">entry</td>
                  <td>
                    <a href="urn:uuid:4331aea8-3f56-40fe-aa0a-5b6a4841a7b7">urn:uuid:4331aea8-3f56-40fe-aa0a-5b6a4841a7b7</a>
                  </td>
                </tr>
                <tr>
                  <td style="font-weight: bold">entry</td>
                  <td>
                    <a href="urn:uuid:fd7f788b-7b31-4355-a8f0-466bf987dc72">urn:uuid:fd7f788b-7b31-4355-a8f0-466bf987dc72</a>
                  </td>
                </tr>
              </table>
            </div>
          </text>
          <!--2.16.840.1.113883.10.20.22.4.109-->
          <entry>
            <reference value="urn:uuid:b002a347-c99d-42b7-8296-e10c5fa1739d" />
          </entry>
          <!--2.16.840.1.113883.10.20.15.2.3.1:2016-12-01-->
          <entry>
            <reference value="urn:uuid:97585031-0d53-4a74-b861-22670be5c7ae" />
          </entry>
          <!--2.16.840.1.113883.10.20.15.2.3.1:2016-12-01-->
          <entry>
            <reference value="urn:uuid:b40b399c-f7bd-42b3-906b-dec8a60bf969" />
          </entry>
          <!--2.16.840.1.113883.10.20.15.2.3.1:2016-12-01-->
          <entry>
            <reference value="urn:uuid:6449d570-c711-47a4-945f-435b30242ad4" />
          </entry>
          <!--2.16.840.1.113883.10.20.15.2.3.1:2016-12-01-->
          <entry>
            <reference value="urn:uuid:161c5cc2-8700-432c-acbd-99f58640e046" />
          </entry>
          <!--2.16.840.1.113883.10.20.15.2.3.1:2016-12-01-->
          <entry>
            <reference value="urn:uuid:daddba2a-2728-4ffa-b014-c9998da34427" />
          </entry>
          <!--2.16.840.1.113883.10.20.15.2.3.1:2016-12-01-->
          <entry>
            <reference value="urn:uuid:f127ccf0-d118-400b-a087-fff900924af8" />
          </entry>
          <!--2.16.840.1.113883.10.20.22.4.221:2017-11-30-->
          <entry>
            <reference value="urn:uuid:4331aea8-3f56-40fe-aa0a-5b6a4841a7b7" />
          </entry>
          <!--2.16.840.1.113883.10.20.22.4.217:2017-11-30-->
          <entry>
            <reference value="urn:uuid:fd7f788b-7b31-4355-a8f0-466bf987dc72" />
          </entry>
        </section>
        <section>
          <title value="Pregnancy Section" />
          <code>
            <coding>
              <system value="http://loinc.org" />
              <code value="90767-5" />
              <display value="Pregnancy summary Document" />
            </coding>
          </code>
          <text>
            <status value="generated" />
            <div xmlns="http://www.w3.org/1999/xhtml" lang="en-US">
              <table xmlns:xsl="http://www.w3.org/1999/XSL/Transform">
                <tr>
                  <td style="font-weight: bold">title</td>
                  <td>
                    <div title="title">Pregnancy Section</div>
                  </td>
                </tr>
                <tr>
                  <td style="font-weight: bold">code</td>
                  <td>
                    <ul style="list-style:none; padding-left:0; margin:0 0;">
                      <li>
                        <ul style="list-style:none; padding-left:0; margin:0 0;">
                          <li>
                            <div title="display">Pregnancy summary Document</div>  (<div title="code">90767-5</div> )
          </li>
                          <li>
                            <div title="system">
                              <a href="http://loinc.org">http://loinc.org</a>
                            </div>
                          </li>
                        </ul>
                      </li>
                    </ul>
                  </td>
                </tr>
                <tr>
                  <td style="font-weight: bold">entry</td>
                  <td>
                    <a href="urn:uuid:6090b393-1bde-4601-b5ff-ce52ba0529d7">urn:uuid:6090b393-1bde-4601-b5ff-ce52ba0529d7</a>
                  </td>
                </tr>
                <tr>
                  <td style="font-weight: bold">entry</td>
                  <td>
                    <a href="urn:uuid:6f322473-bc9d-4438-9077-d6f816b5d98f">urn:uuid:6f322473-bc9d-4438-9077-d6f816b5d98f</a>
                  </td>
                </tr>
                <tr>
                  <td style="font-weight: bold">entry</td>
                  <td>
                    <a href="urn:uuid:b4834980-3529-4616-847b-28c2cff76fb0">urn:uuid:b4834980-3529-4616-847b-28c2cff76fb0</a>
                  </td>
                </tr>
              </table>
            </div>
          </text>
          <!--2.16.840.1.113883.10.20.15.3.8-->
          <!--2.16.840.1.113883.10.20.22.4.293:2018-04-01-->
          <entry>
            <reference value="urn:uuid:6090b393-1bde-4601-b5ff-ce52ba0529d7" />
          </entry>
          <!--2.16.840.1.113883.10.20.30.3.34:2014-06-09-->
          <entry>
            <reference value="urn:uuid:6f322473-bc9d-4438-9077-d6f816b5d98f" />
          </entry>
          <!--2.16.840.1.113883.10.20.22.4.285:2018-04-01-->
          <entry>
            <reference value="urn:uuid:b4834980-3529-4616-847b-28c2cff76fb0" />
          </entry>
        </section>
        <section>
          <title value="Vital Signs (Last Filed)" />
          <code>
            <coding>
              <system value="http://loinc.org" />
              <code value="8716-3" />
              <display value="Vital Signs" />
            </coding>
          </code>
          <text>
            <status value="generated" />
            <div xmlns="http://www.w3.org/1999/xhtml" lang="en-US">
              <table xmlns:xsl="http://www.w3.org/1999/XSL/Transform">
                <tr>
                  <td style="font-weight: bold">title</td>
                  <td>
                    <div title="title">Vital Signs (Last Filed)</div>
                  </td>
                </tr>
                <tr>
                  <td style="font-weight: bold">code</td>
                  <td>
                    <ul style="list-style:none; padding-left:0; margin:0 0;">
                      <li>
                        <ul style="list-style:none; padding-left:0; margin:0 0;">
                          <li>
                            <div title="display">Vital Signs</div>  (<div title="code">8716-3</div> )
          </li>
                          <li>
                            <div title="system">
                              <a href="http://loinc.org">http://loinc.org</a>
                            </div>
                          </li>
                        </ul>
                      </li>
                    </ul>
                  </td>
                </tr>
                <tr>
                  <td style="font-weight: bold">entry</td>
                  <td>
                    <a href="urn:uuid:26e4f9d1-9b7a-4688-8aa5-85104502e7f6">urn:uuid:26e4f9d1-9b7a-4688-8aa5-85104502e7f6</a>
                  </td>
                </tr>
              </table>
            </div>
          </text>
          <!--2.16.840.1.113883.10.20.22.4.26-->
          <!--2.16.840.1.113883.10.20.22.4.26:2015-08-01-->
          <entry>
            <reference value="urn:uuid:26e4f9d1-9b7a-4688-8aa5-85104502e7f6" />
          </entry>
        </section>
      </Composition>
    </resource>
  </entry>
  <entry>
    <fullUrl value="urn:uuid:623cfa69-d346-4077-ab8b-a87e21ee7161" />
    <resource>
      <Patient>
        <meta>
          <profile value="http://hl7.org/fhir/us/ecr/StructureDefinition/ecr-patient" />
          <!--CDA participant: ClinicalDocument[templateId/@root='2.16.840.1.113883.10.20.15.2']/recordTarget-->
        </meta>
        <text>
          <status value="generated" />
          <div xmlns="http://www.w3.org/1999/xhtml" lang="en-US">
            <table xmlns:xsl="http://www.w3.org/1999/XSL/Transform">
              <tr>
                <td style="font-weight: bold">meta</td>
                <td>
                  <table>
                    <tr>
                      <td style="font-weight: bold">profile</td>
                      <td>
                        <div title="profile">http://hl7.org/fhir/us/ecr/StructureDefinition/ecr-patient</div>
                      </td>
                    </tr>
                  </table>
                </td>
              </tr>
              <tr>
                <td style="font-weight: bold">us-core-race</td>
                <td>
                  <ul style="list-style:none; padding-left:0; margin:0 0;">
                    <li>
                      <div title="display">White</div>
                    </li>
                    <li>
                      <div title="system">urn:oid:2.16.840.1.113883.6.238</div>
                    </li>
                    <li>
                      <div title="code">2106-3</div>
                    </li>
                    <li>
                      <div title="valueString">White</div>
                    </li>
                  </ul>
                </td>
              </tr>
              <tr>
                <td style="font-weight: bold">us-core-ethnicity</td>
                <td>
                  <ul style="list-style:none; padding-left:0; margin:0 0;">
                    <li>
                      <div title="display">Not Hispanic or Latino</div>
                    </li>
                    <li>
                      <div title="system">urn:oid:2.16.840.1.113883.6.238</div>
                    </li>
                    <li>
                      <div title="code">2186-5</div>
                    </li>
                    <li>
                      <div title="valueString">Not Hispanic or Latino</div>
                    </li>
                  </ul>
                </td>
              </tr>
              <tr>
                <td style="font-weight: bold">us-core-birthsex</td>
                <td>
                  <ul style="list-style:none; padding-left:0; margin:0 0;">
                    <li>
                      <div title="valueCode">F</div>
                    </li>
                  </ul>
                </td>
              </tr>
              <tr>
                <td style="font-weight: bold">patient-genderIdentity</td>
                <td>
                  <ul style="list-style:none; padding-left:0; margin:0 0;">
                    <li>
                      <ul style="list-style:none; padding-left:0; margin:0 0;">
                        <li>
                          <div title="display">Female-to-male transsexual (finding)</div>  (<div title="code">407377005</div> )
          </li>
                        <li>
                          <div title="system">
                            <a href="http://snomed.info/sct">http://snomed.info/sct</a>
                          </div>
                        </li>
                      </ul>
                    </li>
                  </ul>
                </td>
              </tr>
              <tr>
                <td style="font-weight: bold">identifier</td>
                <td>
                  <ul style="list-style:none; padding-left:0; margin:0 0;">
                    <li>
                      <div title="system">urn:oid:2.16.840.1.113883.19.5</div>
                    </li>
                    <li>
                      <div title="value">123453</div>
                    </li>
                  </ul>
                </td>
              </tr>
              <tr>
                <td style="font-weight: bold">identifier</td>
                <td>
                  <ul style="list-style:none; padding-left:0; margin:0 0;">
                    <li>
                      <div title="system">
                        <a href="http://hl7.org/fhir/sid/us-ssn">http://hl7.org/fhir/sid/us-ssn</a>
                      </div>
                    </li>
                    <li>
                      <div title="value">444-22-2222</div>
                    </li>
                  </ul>
                </td>
              </tr>
              <tr>
                <td style="font-weight: bold">name</td>
                <td>
                  <table>
                    <tr>
                      <td style="font-weight: bold">use</td>
                      <td>
                        <div title="use">usual</div>
                      </td>
                    </tr>
                    <tr>
                      <td style="font-weight: bold">family</td>
                      <td>
                        <div title="family">Everywoman</div>
                      </td>
                    </tr>
                    <tr>
                      <td style="font-weight: bold">given</td>
                      <td>
                        <div title="given">Eve</div>
                      </td>
                    </tr>
                    <tr>
                      <td style="font-weight: bold">given</td>
                      <td>
                        <div title="given">H</div>
                      </td>
                    </tr>
                  </table>
                </td>
              </tr>
              <tr>
                <td style="font-weight: bold">name</td>
                <td>
                  <table>
                    <tr>
                      <td style="font-weight: bold">family</td>
                      <td>
                        <div title="family">Everywoman</div>
                      </td>
                    </tr>
                    <tr>
                      <td style="font-weight: bold">given</td>
                      <td>
                        <div title="given">Ruth</div>
                      </td>
                    </tr>
                    <tr>
                      <td style="font-weight: bold">given</td>
                      <td>
                        <div title="given">L</div>
                      </td>
                    </tr>
                  </table>
                </td>
              </tr>
              <tr>
                <td style="font-weight: bold">telecom</td>
                <td>
                  <table>
                    <tr>
                      <td style="font-weight: bold">system</td>
                      <td>
                        <div title="system">phone</div>
                      </td>
                    </tr>
                    <tr>
                      <td style="font-weight: bold">value</td>
                      <td>
                        <div title="value">+1-555-555-2003</div>
                      </td>
                    </tr>
                    <tr>
                      <td style="font-weight: bold">use</td>
                      <td>
                        <div title="use">home</div>
                      </td>
                    </tr>
                  </table>
                </td>
              </tr>
              <tr>
                <td style="font-weight: bold">telecom</td>
                <td>
                  <table>
                    <tr>
                      <td style="font-weight: bold">system</td>
                      <td>
                        <div title="system">phone</div>
                      </td>
                    </tr>
                    <tr>
                      <td style="font-weight: bold">value</td>
                      <td>
                        <div title="value">+1-555-555-2004</div>
                      </td>
                    </tr>
                    <tr>
                      <td style="font-weight: bold">use</td>
                      <td>
                        <div title="use">work</div>
                      </td>
                    </tr>
                  </table>
                </td>
              </tr>
              <tr>
                <td style="font-weight: bold">gender</td>
                <td>
                  <div title="gender">female</div>
                </td>
              </tr>
              <tr>
                <td style="font-weight: bold">birthDate</td>
                <td>
                  <div title="birthDate">1974-11-24</div>
                </td>
              </tr>
              <tr>
                <td style="font-weight: bold">deceasedDateTime</td>
                <td>
                  <div title="deceasedDateTime">2019-11-07T09:44:21.000-05:00</div>
                </td>
              </tr>
              <tr>
                <td style="font-weight: bold">address</td>
                <td>
                  <table>
                    <tr>
                      <td style="font-weight: bold">use</td>
                      <td>
                        <div title="use">home</div>
                      </td>
                    </tr>
                    <tr>
                      <td style="font-weight: bold">line</td>
                      <td>
                        <div title="line">2222 Home Street</div>
                      </td>
                    </tr>
                    <tr>
                      <td style="font-weight: bold">city</td>
                      <td>
                        <div title="city">Ann Arbor</div>
                      </td>
                    </tr>
                    <tr>
                      <td style="font-weight: bold">district</td>
                      <td>
                        <div title="district">26001</div>
                      </td>
                    </tr>
                    <tr>
                      <td style="font-weight: bold">state</td>
                      <td>
                        <div title="state">MI</div>
                      </td>
                    </tr>
                    <tr>
                      <td style="font-weight: bold">postalCode</td>
                      <td>
                        <div title="postalCode">99999</div>
                      </td>
                    </tr>
                    <tr>
                      <td style="font-weight: bold">country</td>
                      <td>
                        <div title="country">US</div>
                      </td>
                    </tr>
                  </table>
                </td>
              </tr>
              <tr>
                <td style="font-weight: bold">contact</td>
                <td>
                  <table>
                    <tr>
                      <td style="font-weight: bold">relationship</td>
                      <td>
                        <ul style="list-style:none; padding-left:0; margin:0 0;">
                          <li>
                            <ul style="list-style:none; padding-left:0; margin:0 0;">
                              <li> (<div title="code">GUARD</div> )
            </li>
                              <li>
                                <div title="system">
                                  <a href="http://terminology.hl7.org/CodeSystem/v3-RoleClass">http://terminology.hl7.org/CodeSystem/v3-RoleClass</a>
                                </div>
                              </li>
                            </ul>
                          </li>
                        </ul>
                      </td>
                    </tr>
                    <tr>
                      <td style="font-weight: bold">name</td>
                      <td>
                        <table>
                          <tr>
                            <td style="font-weight: bold">use</td>
                            <td>
                              <div title="use">usual</div>
                            </td>
                          </tr>
                          <tr>
                            <td style="font-weight: bold">family</td>
                            <td>
                              <div title="family">Mum</div>
                            </td>
                          </tr>
                          <tr>
                            <td style="font-weight: bold">given</td>
                            <td>
                              <div title="given">Martha</div>
                            </td>
                          </tr>
                          <tr>
                            <td style="font-weight: bold">given</td>
                            <td>
                              <div title="given">L</div>
                            </td>
                          </tr>
                        </table>
                      </td>
                    </tr>
                    <tr>
                      <td style="font-weight: bold">telecom</td>
                      <td>
                        <table>
                          <tr>
                            <td style="font-weight: bold">system</td>
                            <td>
                              <div title="system">phone</div>
                            </td>
                          </tr>
                          <tr>
                            <td style="font-weight: bold">value</td>
                            <td>
                              <div title="value">+1-555-555-2006</div>
                            </td>
                          </tr>
                          <tr>
                            <td style="font-weight: bold">use</td>
                            <td>
                              <div title="use">home</div>
                            </td>
                          </tr>
                        </table>
                      </td>
                    </tr>
                    <tr>
                      <td style="font-weight: bold">telecom</td>
                      <td>
                        <table>
                          <tr>
                            <td style="font-weight: bold">system</td>
                            <td>
                              <div title="system">email</div>
                            </td>
                          </tr>
                          <tr>
                            <td style="font-weight: bold">value</td>
                            <td>
                              <div title="value">mail@guardian.com</div>
                            </td>
                          </tr>
                        </table>
                      </td>
                    </tr>
                    <tr>
                      <td style="font-weight: bold">address</td>
                      <td>
                        <table>
                          <tr>
                            <td style="font-weight: bold">use</td>
                            <td>
                              <div title="use">home</div>
                            </td>
                          </tr>
                          <tr>
                            <td style="font-weight: bold">line</td>
                            <td>
                              <div title="line">4444 Home Street</div>
                            </td>
                          </tr>
                          <tr>
                            <td style="font-weight: bold">city</td>
                            <td>
                              <div title="city">Ann Arbor</div>
                            </td>
                          </tr>
                          <tr>
                            <td style="font-weight: bold">state</td>
                            <td>
                              <div title="state">MI</div>
                            </td>
                          </tr>
                          <tr>
                            <td style="font-weight: bold">postalCode</td>
                            <td>
                              <div title="postalCode">99999</div>
                            </td>
                          </tr>
                          <tr>
                            <td style="font-weight: bold">country</td>
                            <td>
                              <div title="country">US</div>
                            </td>
                          </tr>
                        </table>
                      </td>
                    </tr>
                  </table>
                </td>
              </tr>
              <tr>
                <td style="font-weight: bold">communication</td>
                <td>
                  <table>
                    <tr>
                      <td style="font-weight: bold">language</td>
                      <td>
                        <ul style="list-style:none; padding-left:0; margin:0 0;">
                          <li>
                            <ul style="list-style:none; padding-left:0; margin:0 0;">
                              <li> (<div title="code">en</div> )
            </li>
                            </ul>
                          </li>
                        </ul>
                      </td>
                    </tr>
                    <tr>
                      <td style="font-weight: bold">preferred</td>
                      <td>
                        <div title="preferred">true</div>
                      </td>
                    </tr>
                  </table>
                </td>
              </tr>
            </table>
          </div>
        </text>
        <extension url="http://hl7.org/fhir/us/core/StructureDefinition/us-core-race">
          <extension url="ombCategory">
            <valueCoding>
              <system value="urn:oid:2.16.840.1.113883.6.238" />
              <code value="2106-3" />
              <display value="White" />
            </valueCoding>
          </extension>
          <extension url="text">
            <valueString value="White" />
          </extension>
        </extension>
        <extension url="http://hl7.org/fhir/us/core/StructureDefinition/us-core-ethnicity">
          <extension url="ombCategory">
            <valueCoding>
              <system value="urn:oid:2.16.840.1.113883.6.238" />
              <code value="2186-5" />
              <display value="Not Hispanic or Latino" />
            </valueCoding>
          </extension>
          <extension url="text">
            <valueString value="Not Hispanic or Latino" />
          </extension>
        </extension>
        <extension url="http://hl7.org/fhir/us/core/StructureDefinition/us-core-birthsex">
          <valueCode value="F" />
        </extension>
        <extension url="http://hl7.org/fhir/StructureDefinition/patient-genderIdentity">
          <valueCodeableConcept>
            <coding>
              <system value="http://snomed.info/sct" />
              <code value="407377005" />
              <display value="Female-to-male transsexual (finding)" />
            </coding>
          </valueCodeableConcept>
        </extension>
        <identifier>
          <system value="urn:oid:2.16.840.1.113883.19.5" />
          <value value="123453" />
        </identifier>
        <identifier>
          <system value="http://hl7.org/fhir/sid/us-ssn" />
          <value value="444-22-2222" />
        </identifier>
        <name>
          <use value="usual" />
          <family value="Everywoman" />
          <given value="Eve" />
          <given value="H" />
        </name>
        <name>
          <family value="Everywoman" />
          <given value="Ruth" />
          <given value="L" />
        </name>
        <telecom>
          <system value="phone" />
          <value value="+1-555-555-2003" />
          <use value="home" />
        </telecom>
        <telecom>
          <system value="phone" />
          <value value="+1-555-555-2004" />
          <use value="work" />
        </telecom>
        <gender value="female" />
        <birthDate value="1974-11-24" />
        <deceasedDateTime value="2019-11-07T09:44:21.000-05:00" />
        <address>
               <use value="home" />
               <line value="2222 Home Street" />
               <city value="Ann Arbor" />
               <district value="26001" />
               <state value="MI" />
               <postalCode value="99999" />
               <country value="US" />
            </address>
        <contact>
          <relationship>
            <coding>
              <system value="http://terminology.hl7.org/CodeSystem/v3-RoleClass" />
              <code value="GUARD" />
            </coding>
          </relationship>
          <name>
            <use value="usual" />
            <family value="Mum" />
            <given value="Martha" />
            <given value="L" />
          </name>
          <telecom>
            <system value="phone" />
            <value value="+1-555-555-2006" />
            <use value="home" />
          </telecom>
          <telecom>
            <system value="email" />
            <value value="mail@guardian.com" />
          </telecom>
          <address>
                  <use value="home" />
                  <line value="4444 Home Street" />
                  <city value="Ann Arbor" />
                  <state value="MI" />
                  <postalCode value="99999" />
                  <country value="US" />
               </address>
        </contact>
        <communication>
          <language>
            <coding>
              <code value="en" />
            </coding>
          </language>
          <preferred value="true" />
        </communication>
      </Patient>
    </resource>
  </entry>
  <entry>
    <fullUrl value="urn:uuid:615e58ba-7101-4a59-9705-a8ac5419bfb7" />
    <resource>
      <Encounter>
        <meta>
          <profile value="http://hl7.org/fhir/us/ecr/StructureDefinition/eicr-encounter" />
          <!--CDA participant: ClinicalDocument[templateId/@root='2.16.840.1.113883.10.20.15.2']/componentOf/encompassingEncounter-->
        </meta>
        <identifier>
          <system value="urn:oid:2.16.840.1.113883.19" />
          <value value="9937012" />
        </identifier>
        <status value="in-progress" />
        <class>
          <system value="http://terminology.hl7.org/CodeSystem/v3-ActCode" />
          <code value="AMB" />
          <display value="Ambulatory" />
        </class>
        <type>
          <coding>
            <system value="http://www.ama-assn.org/go/cpt" />
            <code value="99213" />
            <display value="Office outpatient visit 15 minutes" />
          </coding>
        </type>
        <subject>
          <reference value="urn:uuid:623cfa69-d346-4077-ab8b-a87e21ee7161" />
        </subject>
        <participant>
          <individual>
            <reference value="urn:uuid:90cbb4bd-355e-4b11-8083-1e6386e4dc22" />
          </individual>
        </participant>
        <period>
          <start value="2018-11-07" />
        </period>
        <diagnosis>
          <condition>
            <!--2.16.840.1.113883.10.20.22.4.4-->
            <!--2.16.840.1.113883.10.20.22.4.4:2015-08-01-->
            <!--2.16.840.1.113883.10.20.15.2.3.3:2019-04-01-->
            <reference value="urn:uuid:00b34b2f-5854-4380-af08-d5d6ab479d43" />
          </condition>
        </diagnosis>
        <diagnosis>
          <condition>
            <!--2.16.840.1.113883.10.20.22.4.4-->
            <!--2.16.840.1.113883.10.20.22.4.4:2015-08-01-->
            <reference value="urn:uuid:3c774591-1585-4cb1-8ee4-187f5b3274f4" />
          </condition>
        </diagnosis>
        <location>
          <location>
            <reference value="urn:uuid:4f300a41-a29e-440d-9498-255a83535e42" />
          </location>
        </location>
        <serviceProvider>
          <reference value="urn:uuid:778995fc-6eca-4dfb-892b-6ae72a5942da" />
        </serviceProvider>
      </Encounter>
    </resource>
  </entry>
  <entry>
    <fullUrl value="urn:uuid:90cbb4bd-355e-4b11-8083-1e6386e4dc22" />
    <resource>
      <PractitionerRole>
        <meta>
          <profile value="http://hl7.org/fhir/us/ecr/StructureDefinition/ecr-practitionerrole" />
          <!--CDA participant: ClinicalDocument[templateId/@root='2.16.840.1.113883.10.20.15.2']/componentOf/encompassingEncounter/responsibleParty/assignedEntity-->
        </meta>
        <!--responsibleParty/assignedEntity-->
        <identifier>
          <system value="http://hl7.org/fhir/sid/us-npi" />
          <value value="6666666666666" />
        </identifier>
        <practitioner>
          <reference value="urn:uuid:b594e3bf-4ef7-4445-b027-d72d78c5c09d" />
        </practitioner>
        <organization>
          <reference value="urn:uuid:1fe1ce9b-1b3f-4024-8245-3ef0c49c2b84" />
        </organization>
        <telecom>
          <system value="phone" />
          <value value="+1(555)555-1003" />
          <use value="work" />
        </telecom>
        <telecom>
          <system value="fax" />
          <value value="+1(555)555-1234" />
          <use value="work" />
        </telecom>
        <telecom>
          <system value="email" />
          <value value="mail@provider_domain.com" />
          <use value="work" />
        </telecom>
      </PractitionerRole>
    </resource>
  </entry>
  <entry>
    <fullUrl value="urn:uuid:b594e3bf-4ef7-4445-b027-d72d78c5c09d" />
    <resource>
      <Practitioner>
        <!--assignedEntity[cda:id[@root="2.16.840.1.113883.4.6"]]/assignedPerson-->
        <meta>
          <profile value="http://hl7.org/fhir/us/core/StructureDefinition/us-core-practitioner" />
        </meta>
        <text>
          <status value="generated" />
          <div xmlns="http://www.w3.org/1999/xhtml" lang="en-US">
            <table xmlns:xsl="http://www.w3.org/1999/XSL/Transform">
              <tr>
                <td style="font-weight: bold">meta</td>
                <td>
                  <table>
                    <tr>
                      <td style="font-weight: bold">profile</td>
                      <td>
                        <div title="profile">http://hl7.org/fhir/us/core/StructureDefinition/us-core-practitioner</div>
                      </td>
                    </tr>
                  </table>
                </td>
              </tr>
              <tr>
                <td style="font-weight: bold">identifier</td>
                <td>
                  <ul style="list-style:none; padding-left:0; margin:0 0;">
                    <li>
                      <div title="system">
                        <a href="http://hl7.org/fhir/sid/us-npi">http://hl7.org/fhir/sid/us-npi</a>
                      </div>
                    </li>
                    <li>
                      <div title="value">6666666666666</div>
                    </li>
                  </ul>
                </td>
              </tr>
              <tr>
                <td style="font-weight: bold">name</td>
                <td>
                  <table>
                    <tr>
                      <td style="font-weight: bold">family</td>
                      <td>
                        <div title="family">Seven</div>
                      </td>
                    </tr>
                    <tr>
                      <td style="font-weight: bold">given</td>
                      <td>
                        <div title="given">Henry</div>
                      </td>
                    </tr>
                    <tr>
                      <td style="font-weight: bold">suffix</td>
                      <td>
                        <div title="suffix">M.D.</div>
                      </td>
                    </tr>
                  </table>
                </td>
              </tr>
              <tr>
                <td style="font-weight: bold">telecom</td>
                <td>
                  <table>
                    <tr>
                      <td style="font-weight: bold">system</td>
                      <td>
                        <div title="system">phone</div>
                      </td>
                    </tr>
                    <tr>
                      <td style="font-weight: bold">value</td>
                      <td>
                        <div title="value">+1(555)555-1003</div>
                      </td>
                    </tr>
                    <tr>
                      <td style="font-weight: bold">use</td>
                      <td>
                        <div title="use">work</div>
                      </td>
                    </tr>
                  </table>
                </td>
              </tr>
              <tr>
                <td style="font-weight: bold">telecom</td>
                <td>
                  <table>
                    <tr>
                      <td style="font-weight: bold">system</td>
                      <td>
                        <div title="system">fax</div>
                      </td>
                    </tr>
                    <tr>
                      <td style="font-weight: bold">value</td>
                      <td>
                        <div title="value">+1(555)555-1234</div>
                      </td>
                    </tr>
                    <tr>
                      <td style="font-weight: bold">use</td>
                      <td>
                        <div title="use">work</div>
                      </td>
                    </tr>
                  </table>
                </td>
              </tr>
              <tr>
                <td style="font-weight: bold">telecom</td>
                <td>
                  <table>
                    <tr>
                      <td style="font-weight: bold">system</td>
                      <td>
                        <div title="system">email</div>
                      </td>
                    </tr>
                    <tr>
                      <td style="font-weight: bold">value</td>
                      <td>
                        <div title="value">mail@provider_domain.com</div>
                      </td>
                    </tr>
                    <tr>
                      <td style="font-weight: bold">use</td>
                      <td>
                        <div title="use">work</div>
                      </td>
                    </tr>
                  </table>
                </td>
              </tr>
              <tr>
                <td style="font-weight: bold">address</td>
                <td>
                  <table>
                    <tr>
                      <td style="font-weight: bold">line</td>
                      <td>
                        <div title="line">Responsible Party 1002 Healthcare Drive</div>
                      </td>
                    </tr>
                    <tr>
                      <td style="font-weight: bold">city</td>
                      <td>
                        <div title="city">Ann Arbor</div>
                      </td>
                    </tr>
                    <tr>
                      <td style="font-weight: bold">state</td>
                      <td>
                        <div title="state">MI</div>
                      </td>
                    </tr>
                    <tr>
                      <td style="font-weight: bold">postalCode</td>
                      <td>
                        <div title="postalCode">99999</div>
                      </td>
                    </tr>
                    <tr>
                      <td style="font-weight: bold">country</td>
                      <td>
                        <div title="country">US</div>
                      </td>
                    </tr>
                  </table>
                </td>
              </tr>
            </table>
          </div>
        </text>
        <identifier>
          <system value="http://hl7.org/fhir/sid/us-npi" />
          <value value="6666666666666" />
        </identifier>
        <name>
          <family value="Seven" />
          <given value="Henry" />
          <suffix value="M.D." />
        </name>
        <telecom>
          <system value="phone" />
          <value value="+1(555)555-1003" />
          <use value="work" />
        </telecom>
        <telecom>
          <system value="fax" />
          <value value="+1(555)555-1234" />
          <use value="work" />
        </telecom>
        <telecom>
          <system value="email" />
          <value value="mail@provider_domain.com" />
          <use value="work" />
        </telecom>
        <address>
               <line value="Responsible Party 1002 Healthcare Drive" />
               <city value="Ann Arbor" />
               <state value="MI" />
               <postalCode value="99999" />
               <country value="US" />
            </address>
      </Practitioner>
    </resource>
  </entry>
  <entry>
    <fullUrl value="urn:uuid:1fe1ce9b-1b3f-4024-8245-3ef0c49c2b84" />
    <resource>
      <Organization>
        <meta>
          <profile value="http://hl7.org/fhir/us/ecr/StructureDefinition/ecr-organization" />
          <!--CDA participant: ClinicalDocument[templateId/@root='2.16.840.1.113883.10.20.15.2']/componentOf/encompassingEncounter/responsibleParty/assignedEntity/representedOrganization-->
        </meta>
        <identifier>
          <system value="urn:ietf:rfc:3986" />
          <value value="urn:uuid:1fe1ce9b-1b3f-4024-8245-3ef0c49c2b84" />
        </identifier>
        <active value="true" />
        <name value="Community Health and Hospitals" />
        <telecom>
          <system value="phone" />
          <value value="+1(555)555-1003" />
          <use value="work" />
        </telecom>
        <telecom>
          <system value="fax" />
          <value value="+1(555)555-1234" />
          <use value="work" />
        </telecom>
        <telecom>
          <system value="email" />
          <value value="mail@provider_domain.com" />
          <use value="work" />
        </telecom>
        <address>
               <line value="Responsible Party 1002 Healthcare Drive" />
               <city value="Ann Arbor" />
               <state value="MI" />
               <postalCode value="99999" />
               <country value="US" />
            </address>
      </Organization>
    </resource>
  </entry>
  <entry>
    <fullUrl value="urn:uuid:4f300a41-a29e-440d-9498-255a83535e42" />
    <resource>
      <Location>
        <meta>
          <profile value="http://hl7.org/fhir/us/ecr/StructureDefinition/eicr-location" />
          <!--CDA participant: ClinicalDocument[templateId/@root='2.16.840.1.113883.10.20.15.2']/componentOf/encompassingEncounter/location-->
        </meta>
        <identifier>
          <system value="http://hl7.org/fhir/sid/us-npi" />
          <value value="77777777777" />
        </identifier>
        <name value="Good Health Hospital Facility" />
        <type>
          <coding>
            <system value="http://hl7.org/fhir/v3/RoleCode" />
            <code value="OF" />
            <display value="Outpatient facility" />
          </coding>
        </type>
        <telecom>
          <system value="phone" />
          <value value="1+(555)-555-1212" />
          <use value="work" />
        </telecom>
        <telecom>
          <system value="fax" />
          <value value="1+(555)-555-3333" />
          <use value="work" />
        </telecom>
        <address>
               <line value="2-1000 Hospital Lane" />
               <city value="Ann Arbor" />
               <state value="MI" />
               <postalCode value="99999" />
               <country value="US" />
            </address>
      </Location>
    </resource>
  </entry>
  <entry>
    <fullUrl value="urn:uuid:778995fc-6eca-4dfb-892b-6ae72a5942da" />
    <resource>
      <Organization>
        <meta>
          <profile value="http://hl7.org/fhir/us/ecr/StructureDefinition/ecr-organization" />
          <!--CDA participant: ClinicalDocument[templateId/@root='2.16.840.1.113883.10.20.15.2']/componentOf/encompassingEncounter/location/healthCareFacility/serviceProviderOrganization-->
        </meta>
        <identifier>
          <system value="urn:ietf:rfc:3986" />
          <value value="urn:uuid:778995fc-6eca-4dfb-892b-6ae72a5942da" />
        </identifier>
        <active value="true" />
        <name value="Good Health Hospital Service Provider Organization" />
        <telecom>
          <system value="phone" />
          <value value="1+(555)-555-1212" />
          <use value="work" />
        </telecom>
        <telecom>
          <system value="fax" />
          <value value="1+(555)-555-3333" />
          <use value="work" />
        </telecom>
        <address>
               <line value="1-1000 Hospital Lane" />
               <city value="Ann Arbor" />
               <state value="MI" />
               <postalCode value="99999" />
               <country value="US" />
            </address>
      </Organization>
    </resource>
  </entry>
  <entry>
    <fullUrl value="urn:uuid:b17760e1-2092-4b7a-ac06-dc17bda45652" />
    <resource>
      <PractitionerRole>
        <!--author/assignedAuthor-->
        <identifier>
          <system value="urn:ietf:rfc:3986" />
          <value value="urn:uuid:ec399842-7c0d-4cfc-ada3-f11a799d0460" />
        </identifier>
        <practitioner>
          <reference value="urn:uuid:02a5a905-7b4b-4a79-89ad-4943b452a4c6" />
        </practitioner>
        <organization>
          <reference value="urn:uuid:0894020c-a372-4f5e-9a5e-7b608ecd7d0e" />
        </organization>
        <code>
          <coding>
            <system value="http://nucc.org/provider-taxonomy" />
            <code value="183500000X" />
            <display value="Pharmacist" />
          </coding>
        </code>
        <telecom>
          <system value="phone" />
          <value value="+1(555)555-1004" />
          <use value="work" />
        </telecom>
      </PractitionerRole>
    </resource>
  </entry>
  <entry>
    <fullUrl value="urn:uuid:02a5a905-7b4b-4a79-89ad-4943b452a4c6" />
    <resource>
      <Practitioner>
        <!--assignedAuthor[cda:id[@root="ec399842-7c0d-4cfc-ada3-f11a799d0460"]]/assignedPerson-->
        <meta>
          <profile value="http://hl7.org/fhir/us/core/StructureDefinition/us-core-practitioner" />
        </meta>
        <text>
          <status value="generated" />
          <div xmlns="http://www.w3.org/1999/xhtml" lang="en-US">
            <table xmlns:xsl="http://www.w3.org/1999/XSL/Transform">
              <tr>
                <td style="font-weight: bold">meta</td>
                <td>
                  <table>
                    <tr>
                      <td style="font-weight: bold">profile</td>
                      <td>
                        <div title="profile">http://hl7.org/fhir/us/core/StructureDefinition/us-core-practitioner</div>
                      </td>
                    </tr>
                  </table>
                </td>
              </tr>
              <tr>
                <td style="font-weight: bold">identifier</td>
                <td>
                  <ul style="list-style:none; padding-left:0; margin:0 0;">
                    <li>
                      <div title="system">urn:ietf:rfc:3986</div>
                    </li>
                    <li>
                      <div title="value">urn:uuid:ec399842-7c0d-4cfc-ada3-f11a799d0460</div>
                    </li>
                  </ul>
                </td>
              </tr>
              <tr>
                <td style="font-weight: bold">name</td>
                <td>
                  <table>
                    <tr>
                      <td style="font-weight: bold">family</td>
                      <td>
                        <div title="family">Pharmacist</div>
                      </td>
                    </tr>
                    <tr>
                      <td style="font-weight: bold">given</td>
                      <td>
                        <div title="given">Registered</div>
                      </td>
                    </tr>
                    <tr>
                      <td style="font-weight: bold">suffix</td>
                      <td>
                        <div title="suffix">RPh</div>
                      </td>
                    </tr>
                  </table>
                </td>
              </tr>
              <tr>
                <td style="font-weight: bold">telecom</td>
                <td>
                  <table>
                    <tr>
                      <td style="font-weight: bold">system</td>
                      <td>
                        <div title="system">phone</div>
                      </td>
                    </tr>
                    <tr>
                      <td style="font-weight: bold">value</td>
                      <td>
                        <div title="value">+1(555)555-1004</div>
                      </td>
                    </tr>
                    <tr>
                      <td style="font-weight: bold">use</td>
                      <td>
                        <div title="use">work</div>
                      </td>
                    </tr>
                  </table>
                </td>
              </tr>
              <tr>
                <td style="font-weight: bold">address</td>
                <td>
                  <table>
                    <tr>
                      <td style="font-weight: bold">line</td>
                      <td>
                        <div title="line">1004 Pharmacy Drive</div>
                      </td>
                    </tr>
                    <tr>
                      <td style="font-weight: bold">city</td>
                      <td>
                        <div title="city">Portland</div>
                      </td>
                    </tr>
                    <tr>
                      <td style="font-weight: bold">state</td>
                      <td>
                        <div title="state">OR</div>
                      </td>
                    </tr>
                    <tr>
                      <td style="font-weight: bold">postalCode</td>
                      <td>
                        <div title="postalCode">99123</div>
                      </td>
                    </tr>
                    <tr>
                      <td style="font-weight: bold">country</td>
                      <td>
                        <div title="country">US</div>
                      </td>
                    </tr>
                  </table>
                </td>
              </tr>
            </table>
          </div>
        </text>
        <identifier>
          <system value="urn:ietf:rfc:3986" />
          <value value="urn:uuid:ec399842-7c0d-4cfc-ada3-f11a799d0460" />
        </identifier>
        <name>
          <family value="Pharmacist" />
          <given value="Registered" />
          <suffix value="RPh" />
        </name>
        <telecom>
          <system value="phone" />
          <value value="+1(555)555-1004" />
          <use value="work" />
        </telecom>
        <address>
               <line value="1004 Pharmacy Drive" />
               <city value="Portland" />
               <state value="OR" />
               <postalCode value="99123" />
               <country value="US" />
            </address>
      </Practitioner>
    </resource>
  </entry>
  <entry>
    <fullUrl value="urn:uuid:0894020c-a372-4f5e-9a5e-7b608ecd7d0e" />
    <resource>
      <Organization>
        <meta>
          <profile value="http://hl7.org/fhir/us/ecr/StructureDefinition/ecr-organization" />
          <!--CDA participant: ClinicalDocument[templateId/@root='2.16.840.1.113883.10.20.15.2']/author/assignedAuthor/representedOrganization-->
          <profile value="http://hl7.org/fhir/us/ecr/StructureDefinition/ecr-organization" />
          <!--CDA participant: ClinicalDocument[templateId/@root='2.16.840.1.113883.10.20.15.2']/author/assignedAuthor/representedOrganization-->
        </meta>
        <identifier>
          <system value="urn:ietf:rfc:3986" />
          <value value="urn:oid:2.16.840.1.113883.19.5" />
        </identifier>
        <active value="true" />
        <name value="The Pharmacy Alliance Health Group" />
        <telecom>
          <system value="phone" />
          <value value="+1(555)555-1004" />
          <use value="work" />
        </telecom>
        <address>
               <line value="1004 Pharmacy Drive" />
               <city value="Portland" />
               <state value="OR" />
               <postalCode value="99123" />
               <country value="US" />
            </address>
      </Organization>
    </resource>
  </entry>
  <entry>
    <fullUrl value="urn:uuid:6158b76c-451e-4c25-b54e-47b17e13b177" />
    <resource>
      <Organization>
        <meta>
          <profile value="http://hl7.org/fhir/us/ecr/StructureDefinition/ecr-organization" />
          <!--CDA participant: ClinicalDocument[templateId/@root='2.16.840.1.113883.10.20.15.2']/custodian/assignedCustodian/representedCustodianOrganization-->
        </meta>
        <identifier>
          <system value="http://hl7.org/fhir/sid/us-npi" />
          <value value="88888888" />
        </identifier>
        <active value="true" />
        <name value="Good Health Hospital Custodian" />
        <telecom>
          <system value="phone" />
          <value value="+1(555)555-1212" />
          <use value="work" />
        </telecom>
        <address>
               <line value="1000 Hospital Lane" />
               <city value="Ann Arbor" />
               <state value="MI" />
               <postalCode value="99999" />
               <country value="US" />
            </address>
      </Organization>
    </resource>
  </entry>
  <entry>
    <fullUrl value="urn:uuid:8b8b0c81-02bf-4563-bc4d-d708a1ae40c8" />
    <resource>
      <ServiceRequest>
        <meta>
          <profile value="http://hl7.org/fhir/us/ecr/StructureDefinition/eicr-servicerequest" />
          <!--CDA templateId: urn:hl7ii:2.16.840.1.113883.10.20.15.2.3.4:2019-04-01-->
        </meta>
        <identifier>
          <system value="urn:ietf:rfc:3986" />
          <value value="urn:uuid:b52bee94-c34b-4e2c-8c15-5ad9d6def205" />
        </identifier>
        <status value="active" />
        <intent value="order" />
        <code>
          <coding>
            <system value="http://loinc.org" />
            <code value="80825-3" />
            <display value="Zika virus envelope E gene [Presence] in Serum by NAA with probe detection" />
          </coding>
        </code>
        <subject>
          <reference value="urn:uuid:623cfa69-d346-4077-ab8b-a87e21ee7161" />
        </subject>
        <occurrenceDateTime value="2018-11-08" />
      </ServiceRequest>
    </resource>
  </entry>
  <entry>
    <fullUrl value="urn:uuid:5f922868-b55f-4cd7-8ff4-287404b50ede" />
    <resource>
      <MedicationAdministration>
        <meta>
          <profile value="http://hl7.org/fhir/us/core/StructureDefinition/us-core-medicationstatement" />
          <!--CDA templateId: urn:hl7ii:2.16.840.1.113883.10.20.22.4.16:2014-06-09-->
        </meta>
        <identifier>
          <system value="urn:ietf:rfc:3986" />
          <value value="urn:uuid:6c844c75-aa34-411c-b7bd-5e4a9f206e29" />
        </identifier>
        <status value="active" />
        <medicationCodeableConcept>
          <coding>
            <system value="http://www.nlm.nih.gov/research/umls/rxnorm" />
            <code value="248656" />
            <display value="Azithromycin 500 MG Oral Tablet" />
          </coding>
        </medicationCodeableConcept>
        <subject>
          <reference value="urn:uuid:623cfa69-d346-4077-ab8b-a87e21ee7161" />
        </subject>
        <effectiveDateTime value="2018-11-07T11:15:25.000-07:00" />
        <performer>
          <actor>
            <reference value="urn:uuid:b17760e1-2092-4b7a-ac06-dc17bda45652" />
          </actor>
        </performer>
        <dosage>
          <route>
            <coding>
              <system value="http://ncimeta.nci.nih.gov" />
              <code value="C38288" />
              <display value="ORAL" />
            </coding>
          </route>
        </dosage>
      </MedicationAdministration>
    </resource>
  </entry>
  <entry>
    <fullUrl value="urn:uuid:abb7b962-e338-4880-9ead-ffb9f8373bc7" />
    <resource>
      <Condition>
        <meta>
          <profile value="http://hl7.org/fhir/us/core/StructureDefinition/us-core-condition" />
          <!--CDA templateId: urn:hl7ii:2.16.840.1.113883.10.20.22.4.4:2015-08-01-->
        </meta>
        <identifier>
          <system value="urn:ietf:rfc:3986" />
          <value value="urn:uuid:ab1791b0-5c71-11db-b0de-0800200c9a66" />
        </identifier>
        <clinicalStatus>
          <coding>
            <system value="http://terminology.hl7.org/CodeSystem/condition-clinical" />
            <code value="active" />
          </coding>
        </clinicalStatus>
        <category>
          <coding>
            <system value="http://loinc.org" />
            <code value="75325-1" />
            <display value="Symptom" />
          </coding>
          <coding>
            <system value="http://snomed.info/sct" />
            <code value="418799008" />
            <display value="Finding reported by subject or history provider" />
          </coding>
        </category>
        <code>
          <coding>
            <system value="http://snomed.info/sct" />
            <code value="35064005" />
            <display value="Dark stools (finding)" />
          </coding>
        </code>
        <subject>
          <reference value="urn:uuid:623cfa69-d346-4077-ab8b-a87e21ee7161" />
        </subject>
        <onsetDateTime value="2018-11-01" />
        <asserter>
          <reference value="urn:uuid:b17760e1-2092-4b7a-ac06-dc17bda45652" />
        </asserter>
      </Condition>
    </resource>
  </entry>
  <entry>
    <fullUrl value="urn:uuid:4bcfc621-9d14-4634-93ed-93edd7b4977d" />
    <resource>
      <Condition>
        <meta>
          <profile value="http://hl7.org/fhir/us/core/StructureDefinition/us-core-condition" />
          <!--CDA templateId: urn:hl7ii:2.16.840.1.113883.10.20.22.4.4:2015-08-01-->
        </meta>
        <identifier>
          <system value="urn:ietf:rfc:3986" />
          <value value="urn:uuid:ab1791b0-5c71-11db-b0de-0800200c9a67" />
        </identifier>
        <clinicalStatus>
          <coding>
            <system value="http://terminology.hl7.org/CodeSystem/condition-clinical" />
            <code value="active" />
          </coding>
        </clinicalStatus>
        <category>
          <coding>
            <system value="http://loinc.org" />
            <code value="75322-8" />
            <display value="Complaint" />
          </coding>
          <coding>
            <system value="http://snomed.info/sct" />
            <code value="409586006" />
            <display value="Complaint" />
          </coding>
        </category>
        <code>
          <coding>
            <system value="http://snomed.info/sct" />
            <code value="43025008" />
            <display value="Paroxysmal cough (finding)" />
          </coding>
        </code>
        <subject>
          <reference value="urn:uuid:623cfa69-d346-4077-ab8b-a87e21ee7161" />
        </subject>
        <onsetDateTime value="2018-11-04" />
        <asserter>
          <reference value="urn:uuid:b17760e1-2092-4b7a-ac06-dc17bda45652" />
        </asserter>
      </Condition>
    </resource>
  </entry>
  <entry>
    <fullUrl value="urn:uuid:b2462560-b4aa-4573-9250-62b5143eaa63" />
    <resource>
      <Condition>
        <meta>
          <profile value="http://hl7.org/fhir/us/core/StructureDefinition/us-core-condition" />
          <!--CDA templateId: urn:hl7ii:2.16.840.1.113883.10.20.22.4.4:2015-08-01-->
        </meta>
        <identifier>
          <system value="urn:ietf:rfc:3986" />
          <value value="urn:uuid:ab1791b0-5c71-11db-b0de-0800200c9a66" />
        </identifier>
        <clinicalStatus>
          <coding>
            <system value="http://terminology.hl7.org/CodeSystem/condition-clinical" />
            <code value="active" />
          </coding>
        </clinicalStatus>
        <category>
          <coding>
            <system value="http://loinc.org" />
            <code value="75325-1" />
            <display value="Symptom" />
          </coding>
          <coding>
            <system value="http://snomed.info/sct" />
            <code value="418799008" />
            <display value="Symptom" />
          </coding>
        </category>
        <code>
          <coding>
            <system value="http://snomed.info/sct" />
            <code value="35064005" />
            <display value="Dark stools (finding)" />
          </coding>
        </code>
        <subject>
          <reference value="urn:uuid:623cfa69-d346-4077-ab8b-a87e21ee7161" />
        </subject>
        <onsetDateTime value="2018-11-01" />
        <asserter>
          <reference value="urn:uuid:b17760e1-2092-4b7a-ac06-dc17bda45652" />
        </asserter>
      </Condition>
    </resource>
  </entry>
  <entry>
    <fullUrl value="urn:uuid:c188fa35-9550-4172-8ece-adf28866e2b8" />
    <resource>
      <Condition>
        <meta>
          <profile value="http://hl7.org/fhir/us/core/StructureDefinition/us-core-condition" />
          <!--CDA templateId: urn:hl7ii:2.16.840.1.113883.10.20.22.4.4:2015-08-01-->
        </meta>
        <identifier>
          <system value="urn:ietf:rfc:3986" />
          <value value="urn:uuid:ab1791b0-5c71-11db-b0de-0800200c9a67" />
        </identifier>
        <clinicalStatus>
          <coding>
            <system value="http://terminology.hl7.org/CodeSystem/condition-clinical" />
            <code value="active" />
          </coding>
        </clinicalStatus>
        <category>
          <coding>
            <system value="http://loinc.org" />
            <code value="75322-8" />
            <display value="Complaint" />
          </coding>
          <coding>
            <system value="http://snomed.info/sct" />
            <code value="409586006" />
            <display value="Complaint" />
          </coding>
        </category>
        <code>
          <coding>
            <system value="http://snomed.info/sct" />
            <code value="43025008" />
            <display value="Paroxysmal cough (finding)" />
          </coding>
        </code>
        <subject>
          <reference value="urn:uuid:623cfa69-d346-4077-ab8b-a87e21ee7161" />
        </subject>
        <onsetDateTime value="2018-11-04" />
        <asserter>
          <reference value="urn:uuid:b17760e1-2092-4b7a-ac06-dc17bda45652" />
        </asserter>
      </Condition>
    </resource>
  </entry>
  <entry>
    <fullUrl value="urn:uuid:8831efb8-52e6-4691-9377-ad9f0a8a02cc" />
    <resource>
      <Observation>
        <meta>
          <profile value="http://hl7.org/fhir/us/core/StructureDefinition/us-core-observation-lab" />
          <!--CDA templateId: urn:hl7ii:2.16.840.1.113883.10.20.22.4.1:2015-08-01-->
        </meta>
        <identifier>
          <system value="urn:ietf:rfc:3986" />
          <value value="urn:uuid:7d5a02b0-67a4-11db-bd13-0800200c9a66" />
        </identifier>
        <status value="final" />
        <category>
          <coding>
            <system value="http://terminology.hl7.org/CodeSystem/observation-category" />
            <code value="laboratory" />
          </coding>
        </category>
        <code>
          <coding>
            <system value="http://loinc.org" />
            <code value="57021-8" />
            <display value="CBC W Auto Diff Bld" />
          </coding>
        </code>
        <subject>
          <reference value="urn:uuid:623cfa69-d346-4077-ab8b-a87e21ee7161" />
        </subject>
        <performer>
          <reference value="urn:uuid:b17760e1-2092-4b7a-ac06-dc17bda45652" />
        </performer>
        <hasMember>
          <!--2.16.840.1.113883.10.20.22.4.2-->
          <!--2.16.840.1.113883.10.20.22.4.2:2015-08-01-->
          <reference value="urn:uuid:45a1c7f0-186f-47d7-b28d-7d672aeca161" />
        </hasMember>
        <hasMember>
          <!--2.16.840.1.113883.10.20.22.4.2-->
          <!--2.16.840.1.113883.10.20.22.4.2:2015-08-01-->
          <reference value="urn:uuid:8e6c84cf-0816-4c71-a958-e09164cb02f9" />
        </hasMember>
      </Observation>
    </resource>
  </entry>
  <entry>
    <fullUrl value="urn:uuid:45a1c7f0-186f-47d7-b28d-7d672aeca161" />
    <resource>
      <Observation>
        <meta>
          <profile value="http://hl7.org/fhir/us/core/StructureDefinition/us-core-observation-lab" />
          <!--CDA templateId: urn:hl7ii:2.16.840.1.113883.10.20.22.4.2:2015-08-01-->
        </meta>
        <identifier>
          <system value="urn:ietf:rfc:3986" />
          <value value="urn:uuid:7c0704bb-9c40-41b5-9c7d-26b2d59e234f" />
        </identifier>
        <status value="final" />
        <category>
          <coding>
            <system value="http://terminology.hl7.org/CodeSystem/observation-category" />
            <code value="laboratory" />
          </coding>
        </category>
        <code>
          <coding>
            <system value="http://loinc.org" />
            <code value="20570-8" />
            <display value="Hematocrit [Volume Fraction] of Blood" />
          </coding>
        </code>
        <subject>
          <reference value="urn:uuid:623cfa69-d346-4077-ab8b-a87e21ee7161" />
        </subject>
        <effectiveDateTime value="2018-11-07" />
        <performer>
          <reference value="urn:uuid:b17760e1-2092-4b7a-ac06-dc17bda45652" />
        </performer>
        <valueQuantity>
          <value value="35.3" />
          <unit value="%" />
        </valueQuantity>
        <interpretation>
          <coding>
            <system value="http://terminology.hl7.org/CodeSystem/v3-ObservationInterpretation" />
            <code value="L" />
            <display value="Low" />
          </coding>
        </interpretation>
        <referenceRange>
          <low>
            <value value="34.9" />
            <unit value="%" />
          </low>
          <high>
            <value value="44.5" />
            <unit value="%" />
          </high>
        </referenceRange>
      </Observation>
    </resource>
  </entry>
  <entry>
    <fullUrl value="urn:uuid:8e6c84cf-0816-4c71-a958-e09164cb02f9" />
    <resource>
      <Observation>
        <meta>
          <profile value="http://hl7.org/fhir/us/core/StructureDefinition/us-core-observation-lab" />
          <!--CDA templateId: urn:hl7ii:2.16.840.1.113883.10.20.22.4.2:2015-08-01-->
        </meta>
        <identifier>
          <system value="urn:ietf:rfc:3986" />
          <value value="urn:uuid:7c0704bb-9c40-41b5-9c7d-26b2d59e234g" />
        </identifier>
        <status value="final" />
        <category>
          <coding>
            <system value="http://terminology.hl7.org/CodeSystem/observation-category" />
            <code value="laboratory" />
          </coding>
        </category>
        <code>
          <coding>
            <system value="http://loinc.org" />
            <code value="731-0" />
            <display value="Lymphocytes [#/volume] in Blood by Automated count" />
          </coding>
        </code>
        <subject>
          <reference value="urn:uuid:623cfa69-d346-4077-ab8b-a87e21ee7161" />
        </subject>
        <effectiveDateTime value="2018-11-07" />
        <performer>
          <reference value="urn:uuid:b17760e1-2092-4b7a-ac06-dc17bda45652" />
        </performer>
        <valueQuantity>
          <value value="5.2" />
          <unit value="10*3/uL" />
        </valueQuantity>
        <interpretation>
          <coding>
            <system value="http://terminology.hl7.org/CodeSystem/v3-ObservationInterpretation" />
            <code value="H" />
            <display value="High" />
          </coding>
        </interpretation>
        <referenceRange>
          <low>
            <value value="1.0" />
            <unit value="10*3/uL" />
          </low>
          <high>
            <value value="4.8" />
            <unit value="10*3/uL" />
          </high>
        </referenceRange>
      </Observation>
    </resource>
  </entry>
  <entry>
    <fullUrl value="urn:uuid:cd7f2bae-db9f-480f-80c6-8b4f9494bc3d" />
    <resource>
      <Observation>
        <meta>
          <profile value="http://hl7.org/fhir/us/core/StructureDefinition/us-core-observation-lab" />
          <!--CDA templateId: urn:hl7ii:2.16.840.1.113883.10.20.22.4.1:2015-08-01-->
        </meta>
        <identifier>
          <system value="urn:ietf:rfc:3986" />
          <value value="urn:uuid:a4307cb2-b3b4-4f42-be03-1d9077376f4a" />
        </identifier>
        <status value="final" />
        <category>
          <coding>
            <system value="http://terminology.hl7.org/CodeSystem/observation-category" />
            <code value="laboratory" />
          </coding>
        </category>
        <code>
          <coding>
            <system value="http://loinc.org" />
            <code value="11585-7" />
            <display value="Bordetella pertussis Ab [Units/volume] in Serum" />
          </coding>
        </code>
        <subject>
          <reference value="urn:uuid:623cfa69-d346-4077-ab8b-a87e21ee7161" />
        </subject>
        <performer>
          <reference value="urn:uuid:b17760e1-2092-4b7a-ac06-dc17bda45652" />
        </performer>
        <hasMember>
          <!--2.16.840.1.113883.10.20.22.4.2-->
          <!--2.16.840.1.113883.10.20.22.4.2:2015-08-01-->
          <!--2.16.840.1.113883.10.20.15.2.3.2:2019-04-01-->
          <reference value="urn:uuid:bd5e28d5-9600-4f84-a0f9-5f46f2e23081" />
        </hasMember>
      </Observation>
    </resource>
  </entry>
  <entry>
    <fullUrl value="urn:uuid:bd5e28d5-9600-4f84-a0f9-5f46f2e23081" />
    <resource>
      <Observation>
        <meta>
          <profile value="http://hl7.org/fhir/us/core/StructureDefinition/us-core-observation-lab" />
          <!--CDA templateId: urn:hl7ii:2.16.840.1.113883.10.20.22.4.2:2015-08-01-->
        </meta>
        <identifier>
          <system value="urn:ietf:rfc:3986" />
          <value value="urn:uuid:bf9c0a26-4524-4395-b3ce-100450b9c9ad" />
        </identifier>
        <status value="final" />
        <category>
          <coding>
            <system value="http://terminology.hl7.org/CodeSystem/observation-category" />
            <code value="laboratory" />
          </coding>
        </category>
        <code>
          <coding>
            <system value="http://loinc.org" />
            <code value="11585-7" />
            <display value="Bordetella pertussis Ab [Units/volume] in Serum" />
          </coding>
        </code>
        <subject>
          <reference value="urn:uuid:623cfa69-d346-4077-ab8b-a87e21ee7161" />
        </subject>
        <effectiveDateTime value="2018-11-07" />
        <performer>
          <reference value="urn:uuid:b17760e1-2092-4b7a-ac06-dc17bda45652" />
        </performer>
        <valueQuantity>
          <value value="100" />
          <unit value="[iU]/mL" />
        </valueQuantity>
        <interpretation>
          <coding>
            <system value="http://terminology.hl7.org/CodeSystem/v3-ObservationInterpretation" />
            <code value="H" />
            <display value="High" />
          </coding>
        </interpretation>
        <referenceRange>
          <high>
            <value value="45" />
            <unit value="[iU]/mL" />
          </high>
        </referenceRange>
      </Observation>
    </resource>
  </entry>
  <entry>
    <fullUrl value="urn:uuid:d8261bf5-c789-43af-bd62-7d4a56b96288" />
    <resource>
      <Observation>
        <meta>
          <profile value="http://hl7.org/fhir/us/core/StructureDefinition/us-core-observation-lab" />
          <!--CDA templateId: urn:hl7ii:2.16.840.1.113883.10.20.22.4.1:2015-08-01-->
        </meta>
        <identifier>
          <system value="urn:ietf:rfc:3986" />
          <value value="urn:uuid:a4307cb2-b3b4-4f42-be03-1d9077376f4b" />
        </identifier>
        <status value="final" />
        <category>
          <coding>
            <system value="http://terminology.hl7.org/CodeSystem/observation-category" />
            <code value="laboratory" />
          </coding>
        </category>
        <code>
          <coding>
            <system value="http://loinc.org" />
            <code value="548-8" />
            <display value="Bordetella pertussis [Presence] in Throat by Organism specific culture" />
          </coding>
        </code>
        <subject>
          <reference value="urn:uuid:623cfa69-d346-4077-ab8b-a87e21ee7161" />
        </subject>
        <performer>
          <reference value="urn:uuid:b17760e1-2092-4b7a-ac06-dc17bda45652" />
        </performer>
        <hasMember>
          <!--2.16.840.1.113883.10.20.22.4.2-->
          <!--2.16.840.1.113883.10.20.22.4.2:2015-08-01-->
          <!--2.16.840.1.113883.10.20.15.2.3.2:2019-04-01-->
          <reference value="urn:uuid:00498e21-b79c-4007-850e-e3e23f94076a" />
        </hasMember>
      </Observation>
    </resource>
  </entry>
  <entry>
    <fullUrl value="urn:uuid:00498e21-b79c-4007-850e-e3e23f94076a" />
    <resource>
      <Observation>
        <meta>
          <profile value="http://hl7.org/fhir/us/core/StructureDefinition/us-core-observation-lab" />
          <!--CDA templateId: urn:hl7ii:2.16.840.1.113883.10.20.22.4.2:2015-08-01-->
        </meta>
        <identifier>
          <system value="urn:ietf:rfc:3986" />
          <value value="urn:uuid:bf9c0a26-4524-4395-b3ce-100450b9c9ac" />
        </identifier>
        <status value="preliminary" />
        <category>
          <coding>
            <system value="http://terminology.hl7.org/CodeSystem/observation-category" />
            <code value="laboratory" />
          </coding>
        </category>
        <code>
          <coding>
            <system value="urn:oid:2.16.840.1.113883.1.2.3.665" />
            <code value="local_code_pertussis" />
            <display value="Bordetella pertussis in Throat by Organism specific culture" />
          </coding>
          <coding>
            <system value="http://loinc.org" />
            <code value="548-8" />
            <display value="Bordetella pertussis [Presence] in Throat by Organism specific culture" />
          </coding>
        </code>
        <subject>
          <reference value="urn:uuid:623cfa69-d346-4077-ab8b-a87e21ee7161" />
        </subject>
        <effectiveDateTime value="2018-11-07" />
        <performer>
          <reference value="urn:uuid:b17760e1-2092-4b7a-ac06-dc17bda45652" />
        </performer>
        <valueCodeableConcept>
          <coding>
            <system value="http://snomed.info/sct" />
            <code value="5247005" />
            <display value="Bordetella pertussis (organism)" />
          </coding>
        </valueCodeableConcept>
        <interpretation>
          <coding>
            <system value="http://terminology.hl7.org/CodeSystem/v3-ObservationInterpretation" />
            <code value="A" />
            <display value="Abnormal" />
          </coding>
        </interpretation>
      </Observation>
    </resource>
  </entry>
  <entry>
    <fullUrl value="urn:uuid:ffc34a5e-8293-47fc-97cc-461479b7657a" />
    <resource>
      <Immunization>
        <meta>
          <profile value="http://hl7.org/fhir/us/core/StructureDefinition/us-core-immunization" />
          <!--CDA templateId: urn:hl7ii:2.16.840.1.113883.10.20.22.4.52:2015-08-01-->
        </meta>
        <identifier>
          <system value="urn:uuid:00000000-5CF3-EC63-0513-4A4838595787" />
          <value value="11369-6_3-1_1.3.6.1.4.1.22812.11.2016.163.1_14168" />
        </identifier>
        <status value="completed" />
        <vaccineCode>
          <coding>
            <system value="http://hl7.org/fhir/sid/cvx" />
            <code value="106" />
            <display value="DTaP, 5 pertussis antigens" />
          </coding>
        </vaccineCode>
        <patient>
          <reference value="urn:uuid:623cfa69-d346-4077-ab8b-a87e21ee7161" />
        </patient>
        <occurrenceDateTime value="2018-11-07" />
        <!--Defaulting primarySource to false since this info is not in the C-CDA Immunization Activity template-->
        <primarySource value="false" />
        <route>
          <coding>
            <system value="http://terminology.hl7.org/CodeSystem/v3-NullFlavor" />
            <code value="NI" />
            <display value="No Information" />
          </coding>
        </route>
      </Immunization>
    </resource>
  </entry>
  <entry>
    <fullUrl value="urn:uuid:77fe9b7d-bfb1-41f3-831a-fc4afdd090cc" />
    <resource>
      <Immunization>
        <meta>
          <profile value="http://hl7.org/fhir/us/core/StructureDefinition/us-core-immunization" />
          <!--CDA templateId: urn:hl7ii:2.16.840.1.113883.10.20.22.4.52:2015-08-01-->
        </meta>
        <identifier>
          <system value="urn:uuid:00000000-5CF3-EC63-0513-4A4838595787" />
          <value value="11369-6_2-1_1.3.6.1.4.1.22812.11.2016.163.1_14168" />
        </identifier>
        <status value="completed" />
        <vaccineCode>
          <coding>
            <system value="http://hl7.org/fhir/sid/cvx" />
            <code value="88" />
            <display value="influenza, unspecified formulation" />
          </coding>
        </vaccineCode>
        <patient>
          <reference value="urn:uuid:623cfa69-d346-4077-ab8b-a87e21ee7161" />
        </patient>
        <occurrenceDateTime value="2018-11-07" />
        <!--Defaulting primarySource to false since this info is not in the C-CDA Immunization Activity template-->
        <primarySource value="false" />
        <route>
          <coding>
            <system value="http://terminology.hl7.org/CodeSystem/v3-NullFlavor" />
            <code value="NI" />
            <display value="No Information" />
          </coding>
        </route>
      </Immunization>
    </resource>
  </entry>
  <entry>
    <fullUrl value="urn:uuid:b002a347-c99d-42b7-8296-e10c5fa1739d" />
    <resource>
      <Observation>
        <!--Characteristics of Home Environment-->
        <meta>
          <profile value="http://hl7.org/fhir/us/ecr/StructureDefinition/characteristics-of-home-environment" />
          <!--CDA templateId: urn:hl7ii:2.16.840.1.113883.10.20.22.4.109-->
        </meta>
        <identifier>
          <system value="urn:ietf:rfc:3986" />
          <value value="urn:uuid:37f76c51-6411-4e1d-8a37-957fd49d2ced" />
        </identifier>
        <status value="final" />
        <code>
          <coding>
            <system value="http://loinc.org" />
            <code value="75274-1" />
            <display value="Characteristics of residence" />
          </coding>
        </code>
        <subject>
          <reference value="urn:uuid:623cfa69-d346-4077-ab8b-a87e21ee7161" />
        </subject>
        <effectiveDateTime value="2018-11-09" />
        <performer>
          <reference value="urn:uuid:b17760e1-2092-4b7a-ac06-dc17bda45652" />
        </performer>
        <valueCodeableConcept>
          <coding>
            <system value="http://snomed.info/sct" />
            <code value="32911000" />
            <display value="Homeless (finding)" />
          </coding>
        </valueCodeableConcept>
      </Observation>
    </resource>
  </entry>
  <entry>
    <fullUrl value="urn:uuid:97585031-0d53-4a74-b861-22670be5c7ae" />
    <resource>
      <Observation>
        <!--Travel History-->
        <meta>
          <profile value="http://hl7.org/fhir/us/ecr/StructureDefinition/travel-history-observation" />
          <!--CDA templateId: urn:hl7ii:2.16.840.1.113883.10.20.15.2.3.1:2016-12-01-->
        </meta>
        <identifier>
          <system value="urn:ietf:rfc:3986" />
          <value value="urn:uuid:79565142-eae0-4213-a3b3-b73cdf474682" />
        </identifier>
        <status value="final" />
        <code>
          <coding>
            <system value="http://snomed.info/sct" />
            <code value="420008001" />
            <display value="Travel" />
          </coding>
        </code>
        <subject>
          <reference value="urn:uuid:623cfa69-d346-4077-ab8b-a87e21ee7161" />
        </subject>
        <effectivePeriod>
          <start value="1999" />
          <end value="2007" />
        </effectivePeriod>
        <performer>
          <reference value="urn:uuid:b17760e1-2092-4b7a-ac06-dc17bda45652" />
        </performer>
      </Observation>
    </resource>
  </entry>
  <entry>
    <fullUrl value="urn:uuid:b40b399c-f7bd-42b3-906b-dec8a60bf969" />
    <resource>
      <Observation>
        <!--Travel History-->
        <meta>
          <profile value="http://hl7.org/fhir/us/ecr/StructureDefinition/travel-history-observation" />
          <!--CDA templateId: urn:hl7ii:2.16.840.1.113883.10.20.15.2.3.1:2016-12-01-->
        </meta>
        <identifier>
          <system value="urn:ietf:rfc:3986" />
          <value value="urn:uuid:030df1dc-1d31-4e5d-abdd-5edd0b74c5c3" />
        </identifier>
        <status value="final" />
        <code>
          <coding>
            <system value="http://snomed.info/sct" />
            <code value="420008001" />
            <display value="Travel" />
          </coding>
        </code>
        <subject>
          <reference value="urn:uuid:623cfa69-d346-4077-ab8b-a87e21ee7161" />
        </subject>
        <effectivePeriod>
          <start value="2018-10-19" />
          <end value="2018-11-09" />
        </effectivePeriod>
        <performer>
          <reference value="urn:uuid:b17760e1-2092-4b7a-ac06-dc17bda45652" />
        </performer>
        <component>
          <code>
            <coding>
              <system value="http://terminology.hl7.org/CodeSystem/v3-ParticipationType" />
              <code value="LOC" />
              <display value="Location" />
            </coding>
          </code>
          <valueCodeableConcept>
            <coding>
              <system value="urn:oid:1.0.3166.1" />
              <code value="BRA" />
              <display value="Brazil" />
            </coding>
          </valueCodeableConcept>
        </component>
      </Observation>
    </resource>
  </entry>
  <entry>
    <fullUrl value="urn:uuid:6449d570-c711-47a4-945f-435b30242ad4" />
    <resource>
      <Observation>
        <!--Travel History-->
        <meta>
          <profile value="http://hl7.org/fhir/us/ecr/StructureDefinition/travel-history-observation" />
          <!--CDA templateId: urn:hl7ii:2.16.840.1.113883.10.20.15.2.3.1:2016-12-01-->
        </meta>
        <identifier>
          <system value="urn:ietf:rfc:3986" />
          <value value="urn:uuid:b98e410c-d29a-46d8-8fc8-f55a9d3022b9" />
        </identifier>
        <status value="final" />
        <code>
          <coding>
            <system value="http://snomed.info/sct" />
            <code value="420008001" />
            <display value="Travel" />
          </coding>
        </code>
        <subject>
          <reference value="urn:uuid:623cfa69-d346-4077-ab8b-a87e21ee7161" />
        </subject>
        <effectivePeriod>
          <start value="2018-04-25" />
          <end value="2018-04-30" />
        </effectivePeriod>
        <performer>
          <reference value="urn:uuid:b17760e1-2092-4b7a-ac06-dc17bda45652" />
        </performer>
        <component>
          <code>
            <coding>
              <system value="http://terminology.hl7.org/CodeSystem/v3-ParticipationType" />
              <code value="LOC" />
              <display value="Location" />
            </coding>
          </code>
          <valueCodeableConcept>
            <extension url="http://hl7.org/fhir/us/ecr/StructureDefinition/travel-history-address-extension">
              <valueAddress>
                <city value="Nadi" />
                <country value="FJ" />
              </valueAddress>
            </extension>
          </valueCodeableConcept>
        </component>
      </Observation>
    </resource>
  </entry>
  <entry>
    <fullUrl value="urn:uuid:161c5cc2-8700-432c-acbd-99f58640e046" />
    <resource>
      <Observation>
        <!--Travel History-->
        <meta>
          <profile value="http://hl7.org/fhir/us/ecr/StructureDefinition/travel-history-observation" />
          <!--CDA templateId: urn:hl7ii:2.16.840.1.113883.10.20.15.2.3.1:2016-12-01-->
        </meta>
        <identifier>
          <system value="urn:ietf:rfc:3986" />
          <value value="urn:uuid:b97346f7-8f9e-4c5b-97bb-df4f6e057fd4" />
        </identifier>
        <status value="final" />
        <code>
          <coding>
            <system value="http://snomed.info/sct" />
            <code value="420008001" />
            <display value="Travel" />
          </coding>
        </code>
        <subject>
          <reference value="urn:uuid:623cfa69-d346-4077-ab8b-a87e21ee7161" />
        </subject>
        <effectivePeriod>
          <start value="2018-05-06" />
          <end value="2018-05-15" />
        </effectivePeriod>
        <performer>
          <reference value="urn:uuid:b17760e1-2092-4b7a-ac06-dc17bda45652" />
        </performer>
        <component>
          <code>
            <coding>
              <system value="http://terminology.hl7.org/CodeSystem/v3-ParticipationType" />
              <code value="LOC" />
              <display value="Location" />
            </coding>
          </code>
          <valueCodeableConcept>
            <extension url="http://hl7.org/fhir/us/ecr/StructureDefinition/travel-history-address-extension">
              <valueAddress>
                <city value="Montreal" />
                <state value="QC" />
                <country value="CA" />
              </valueAddress>
            </extension>
          </valueCodeableConcept>
        </component>
      </Observation>
    </resource>
  </entry>
  <entry>
    <fullUrl value="urn:uuid:daddba2a-2728-4ffa-b014-c9998da34427" />
    <resource>
      <Observation>
        <!--Travel History-->
        <meta>
          <profile value="http://hl7.org/fhir/us/ecr/StructureDefinition/travel-history-observation" />
          <!--CDA templateId: urn:hl7ii:2.16.840.1.113883.10.20.15.2.3.1:2016-12-01-->
        </meta>
        <identifier>
          <system value="urn:ietf:rfc:3986" />
          <value value="urn:uuid:1d957c2a-6133-427d-a6cc-26f132773b86" />
        </identifier>
        <status value="final" />
        <code>
          <coding>
            <system value="http://snomed.info/sct" />
            <code value="420008001" />
            <display value="Travel" />
          </coding>
        </code>
        <subject>
          <reference value="urn:uuid:623cfa69-d346-4077-ab8b-a87e21ee7161" />
        </subject>
        <effectivePeriod>
          <start value="2018-07-13" />
          <end value="2018-07-15" />
        </effectivePeriod>
        <performer>
          <reference value="urn:uuid:b17760e1-2092-4b7a-ac06-dc17bda45652" />
        </performer>
        <component>
          <code>
            <coding>
              <system value="http://terminology.hl7.org/CodeSystem/v3-ParticipationType" />
              <code value="LOC" />
              <display value="Location" />
            </coding>
          </code>
          <valueCodeableConcept>
            <extension url="http://hl7.org/fhir/us/ecr/StructureDefinition/travel-history-address-extension">
              <valueAddress>
                <city value="Sydney" />
                <state value="NSW" />
                <country value="AU" />
              </valueAddress>
            </extension>
          </valueCodeableConcept>
        </component>
      </Observation>
    </resource>
  </entry>
  <entry>
    <fullUrl value="urn:uuid:f127ccf0-d118-400b-a087-fff900924af8" />
    <resource>
      <Observation>
        <!--Travel History-->
        <meta>
          <profile value="http://hl7.org/fhir/us/ecr/StructureDefinition/travel-history-observation" />
          <!--CDA templateId: urn:hl7ii:2.16.840.1.113883.10.20.15.2.3.1:2016-12-01-->
        </meta>
        <identifier>
          <system value="urn:ietf:rfc:3986" />
          <value value="urn:uuid:45397b5c-e974-4cf1-8b19-e1555bd55701" />
        </identifier>
        <status value="final" />
        <code>
          <coding>
            <system value="http://snomed.info/sct" />
            <code value="420008001" />
            <display value="Travel" />
          </coding>
        </code>
        <subject>
          <reference value="urn:uuid:623cfa69-d346-4077-ab8b-a87e21ee7161" />
        </subject>
        <effectivePeriod>
          <start value="2018-10-22" />
          <end value="2018-10-30" />
        </effectivePeriod>
        <performer>
          <reference value="urn:uuid:b17760e1-2092-4b7a-ac06-dc17bda45652" />
        </performer>
        <component>
          <code>
            <coding>
              <system value="http://terminology.hl7.org/CodeSystem/v3-ParticipationType" />
              <code value="LOC" />
              <display value="Location" />
            </coding>
          </code>
          <valueCodeableConcept>
            <extension url="http://hl7.org/fhir/us/ecr/StructureDefinition/travel-history-address-extension">
              <valueAddress>
                <line value="1170 N Rancho Robles Rd" />
                <city value="Oracle" />
                <state value="AZ" />
                <postalCode value="8562" />
                <country value="US" />
              </valueAddress>
            </extension>
          </valueCodeableConcept>
        </component>
      </Observation>
    </resource>
  </entry>
  <entry>
    <fullUrl value="urn:uuid:4331aea8-3f56-40fe-aa0a-5b6a4841a7b7" />
    <resource>
      <Observation>
        <!--ODH Usual Work-->
        <meta>
          <profile value="http://hl7.org/fhir/us/odh/StructureDefinition/odh-UsualWork" />
          <!--CDA templateId: urn:hl7ii:2.16.840.1.113883.10.20.22.4.221:2017-11-30-->
        </meta>
        <identifier>
          <system value="urn:ietf:rfc:3986" />
          <value value="urn:uuid:4f4b3876-8570-41a0-b995-cf34f37c5cbf" />
        </identifier>
        <status value="final" />
        <code>
          <coding>
            <system value="http://loinc.org" />
            <code value="21843-8" />
            <display value="Usual Occupation" />
          </coding>
        </code>
        <subject>
          <reference value="urn:uuid:623cfa69-d346-4077-ab8b-a87e21ee7161" />
        </subject>
        <effectivePeriod>
          <start value="1996-11-24" />
        </effectivePeriod>
        <performer>
          <reference value="urn:uuid:b17760e1-2092-4b7a-ac06-dc17bda45652" />
        </performer>
        <valueCodeableConcept>
          <coding>
            <system value="urn:oid:2.16.840.1.114222.4.5.314" />
            <code value="1200" />
            <display value="Actuaries" />
          </coding>
        </valueCodeableConcept>
        <component>
          <!--Observation.component: odh-UsualIndustry-->
          <code>
            <coding>
              <system value="http://loinc.org" />
              <code value="21844-6" />
              <display value="Usual Industry" />
            </coding>
          </code>
          <valueCodeableConcept>
            <coding>
              <system value="urn:oid:2.16.840.1.114222.4.5.315" />
              <code value="7280" />
              <display value="Accounting, tax preparation, bookkeeping, and payroll services" />
            </coding>
          </valueCodeableConcept>
        </component>
      </Observation>
    </resource>
  </entry>
  <entry>
    <fullUrl value="urn:uuid:fd7f788b-7b31-4355-a8f0-466bf987dc72" />
    <resource>
      <Observation>
        <!--ODH Past or Present Job-->
        <meta>
          <profile value="http://hl7.org/fhir/us/odh/StructureDefinition/odh-PastOrPresentJob" />
          <!--CDA templateId: urn:hl7ii:2.16.840.1.113883.10.20.22.4.217:2017-11-30-->
        </meta>
        <identifier>
          <system value="urn:ietf:rfc:3986" />
          <value value="urn:uuid:1728123a-7b6c-418c-adc2-f78417caf62c" />
        </identifier>
        <status value="final" />
        <code>
          <coding>
            <system value="http://loinc.org" />
            <code value="11341-5" />
            <display value="History of Occupation" />
          </coding>
        </code>
        <subject>
          <reference value="urn:uuid:623cfa69-d346-4077-ab8b-a87e21ee7161" />
        </subject>
        <effectivePeriod>
          <start value="2015-04-24" />
        </effectivePeriod>
        <performer>
          <reference value="urn:uuid:b17760e1-2092-4b7a-ac06-dc17bda45652" />
        </performer>
        <valueCodeableConcept>
          <coding>
            <system value="urn:oid:2.16.840.1.114222.4.5.314" />
            <code value="1200" />
            <display value="Actuaries" />
          </coding>
        </valueCodeableConcept>
        <component>
          <!--Observation.component: odh-OccupationalHazard-->
          <code>
            <coding>
              <system value="http://loinc.org" />
              <code value="87729-0" />
              <display value="History of Occupational hazard" />
            </coding>
          </code>
          <valueString value="Asbestos" />
        </component>
        <component>
          <!--Observation.component: odh-PastOrPresentIndustry-->
          <code>
            <coding>
              <system value="http://loinc.org" />
              <code value="86188-0" />
              <display value="Occupation Industry" />
            </coding>
          </code>
          <valueCodeableConcept>
            <coding>
              <system value="urn:oid:2.16.840.1.114222.4.5.315" />
              <code value="7280" />
              <display value="Accounting, tax preparation, bookkeeping, and payroll services" />
            </coding>
          </valueCodeableConcept>
        </component>
      </Observation>
    </resource>
  </entry>
  <entry>
    <fullUrl value="urn:uuid:6090b393-1bde-4601-b5ff-ce52ba0529d7" />
    <resource>
      <Observation>
        <!--Pregnancy Status Observation-->
        <meta>
          <profile value="http://hl7.org/fhir/us/ecr/StructureDefinition/pregnancy-status-observation" />
          <!--CDA templateId: urn:hl7ii:2.16.840.1.113883.10.20.22.4.293:2018-04-01-->
        </meta>
        <!--Pregnancy Status Determination Date-->
        <extension url="http://hl7.org/fhir/us/ecr/StructureDefinition/date-determined-extension">
          <valueDateTime value="2017-10-01" />
        </extension>
        <!--Pregnancy Status Recorded Date-->
        <extension url="http://hl7.org/fhir/us/ecr/StructureDefinition/date-recorded-extension">
          <valueDateTime value="2017-10-01T10:35:00+10:00" />
        </extension>
        <identifier>
          <system value="urn:ietf:rfc:3986" />
          <value value="urn:uuid:bab77407-f76d-4a51-a2ed-980c8a59fe28" />
        </identifier>
        <status value="final" />
        <code>
          <coding>
            <system value="http://loinc.org" />
            <code value="82810-3" />
            <display value="Pregnancy Status" />
          </coding>
        </code>
        <subject>
          <reference value="urn:uuid:623cfa69-d346-4077-ab8b-a87e21ee7161" />
        </subject>
        <effectivePeriod>
          <start value="2017-08-26" />
        </effectivePeriod>
        <performer>
          <reference value="urn:uuid:827f999f-cdd0-4854-bf00-db5ffb4c840b" />
        </performer>
        <valueCodeableConcept>
          <coding>
            <system value="http://snomed.info/sct" />
            <code value="77386006" />
            <display value="Pregnant" />
          </coding>
        </valueCodeableConcept>
        <method>
          <coding>
            <system value="http://snomed.info/sct" />
            <code value="16310003" />
            <display value="Diagnostic ultrasonography (procedure)" />
          </coding>
        </method>
        <component>
          <!--Observation.component: sliceEstimatedDateOfDelivery-->
          <extension url="http://hl7.org/fhir/us/ecr/StructureDefinition/date-determined-extension">
            <valueDateTime value="2017-10-01T10:15:00+10:00" />
          </extension>
          <code>
            <coding>
              <system value="http://loinc.org" />
              <code value="11780-4" />
              <display value="Delivery date estimated from ovulation date" />
            </coding>
          </code>
          <valueDateTime value="2017-05-22" />
        </component>
        <component>
          <!--Observation.component: sliceEstimatedGestationalAgeOfPregnancysliceEstimatedDateOfDelivery-->
          <extension url="http://hl7.org/fhir/us/ecr/StructureDefinition/date-determined-extension">
            <valueDateTime value="2017-10-01T10:15:00+10:00" />
          </extension>
          <code>
            <coding>
              <system value="http://loinc.org" />
              <code value="11887-7" />
              <display value="Gestational age Estimated from selected delivery date" />
            </coding>
          </code>
          <valueQuantity>
            <value value="143" />
            <unit value="d" />
          </valueQuantity>
        </component>
      </Observation>
    </resource>
  </entry>
  <entry>
    <fullUrl value="urn:uuid:aefb3a29-eada-4f98-aaa5-6a8c6a22bc4a" />
    <resource>
      <Observation>
        <!--Pregnancy Outcome Observation-->
        <meta>
          <profile value="http://hl7.org/fhir/us/ecr/StructureDefinition/pregnancy-outcome-observation" />
          <!--CDA templateId: urn:hl7ii:2.16.840.1.113883.10.20.22.4.284:2018-04-01-->
        </meta>
        <identifier>
          <system value="urn:ietf:rfc:3986" />
          <value value="urn:uuid:6df3e951-e6f8-441d-a298-d9d6d3f405db" />
        </identifier>
        <status value="final" />
        <code>
          <coding>
            <system value="http://loinc.org" />
            <code value="63893-2" />
            <display value="Outcome of Pregnancy" />
          </coding>
        </code>
        <subject>
          <reference value="urn:uuid:623cfa69-d346-4077-ab8b-a87e21ee7161" />
        </subject>
        <!--Reference to related Pregnancy Observation-->
        <focus>
          <reference value="urn:uuid:6090b393-1bde-4601-b5ff-ce52ba0529d7" />
        </focus>
        <effectiveDateTime value="2018-01-05T08:50:00+10:00" />
        <performer>
          <reference value="urn:uuid:b17760e1-2092-4b7a-ac06-dc17bda45652" />
        </performer>
        <!--Birth Order component-->
        <component>
          <code>
            <coding>
              <system value="http://loinc.org" />
              <code value="73763" />
              <display value="Birth order" />
            </coding>
          </code>
          <valueInteger value="1" />
        </component>
      </Observation>
    </resource>
  </entry>
  <entry>
    <fullUrl value="urn:uuid:6f322473-bc9d-4438-9077-d6f816b5d98f" />
    <resource>
      <Observation>
        <!--Last Menstrual Period-->
        <meta>
          <profile value="http://hl7.org/fhir/us/ecr/StructureDefinition/last-menstrual-period" />
          <!--CDA templateId: urn:hl7ii:2.16.840.1.113883.10.20.30.3.34:2014-06-09-->
        </meta>
        <identifier>
          <system value="urn:ietf:rfc:3986" />
          <value value="urn:uuid:5ffea0ae-9ae5-4313-956a-30219b4a6afa" />
        </identifier>
        <status value="final" />
        <code>
          <coding>
            <system value="http://loinc.org" />
            <code value="8665-2" />
            <display value="Last menstrual period start date" />
          </coding>
        </code>
        <subject>
          <reference value="urn:uuid:623cfa69-d346-4077-ab8b-a87e21ee7161" />
        </subject>
        <effectiveDateTime value="2018-01-05T10:15:00+10:00" />
        <performer>
          <reference value="urn:uuid:b17760e1-2092-4b7a-ac06-dc17bda45652" />
        </performer>
        <!--Start of last menstrual period-->
        <valueDateTime value="2017-08-01" />
      </Observation>
    </resource>
  </entry>
  <entry>
    <fullUrl value="urn:uuid:b4834980-3529-4616-847b-28c2cff76fb0" />
    <resource>
      <Observation>
        <!--Postpartum Status-->
        <meta>
          <profile value="http://hl7.org/fhir/us/ecr/StructureDefinition/postpartum-status" />
          <!--CDA templateId: urn:hl7ii:2.16.840.1.113883.10.20.22.4.285:2018-04-01-->
        </meta>
        <identifier>
          <system value="urn:ietf:rfc:3986" />
          <value value="urn:uuid:9701b264-0f70-47f9-bfbf-aa4f9686cd3a" />
        </identifier>
        <status value="final" />
        <code>
          <coding>
            <system value="http://snomed.info/sct" />
            <code value="249197004" />
            <display value="Maternal condition during puerperium (observable entity)" />
          </coding>
        </code>
        <subject>
          <reference value="urn:uuid:623cfa69-d346-4077-ab8b-a87e21ee7161" />
        </subject>
        <effectiveDateTime value="2018-01-05T10:15:00+10:00" />
        <performer>
          <reference value="urn:uuid:b17760e1-2092-4b7a-ac06-dc17bda45652" />
        </performer>
        <!--Postpartum status-->
        <valueCodeableConcept>
          <coding>
            <system value="http://snomed.info/sct" />
            <code value="42814007" />
            <display value="Mid postpartum state (finding)" />
          </coding>
        </valueCodeableConcept>
      </Observation>
    </resource>
  </entry>
  <entry>
    <fullUrl value="urn:uuid:26e4f9d1-9b7a-4688-8aa5-85104502e7f6" />
    <resource>
      <Observation>
        <identifier>
          <system value="urn:ietf:rfc:3986" />
          <value value="urn:uuid:e421f5c8-29c2-4798-9cb5-7988c236e49d" />
        </identifier>
        <status value="final" />
        <category>
          <coding>
            <system value="http://terminology.hl7.org/CodeSystem/observation-category" />
            <code value="vital-signs" />
          </coding>
        </category>
        <code>
          <coding>
            <system value="http://snomed.info/sct" />
            <code value="46680005" />
            <display value="Vital Signs" />
          </coding>
          <coding>
            <system value="http://loinc.org" />
            <code value="74728-7" />
            <display value="Vital signs, weight, height, head circumference, oximetry, BMI, and BSA panel" />
          </coding>
        </code>
        <subject>
          <reference value="urn:uuid:623cfa69-d346-4077-ab8b-a87e21ee7161" />
        </subject>
        <effectiveDateTime value="2014-05-20T19:36:05.000-05:00" />
        <performer>
          <reference value="urn:uuid:b17760e1-2092-4b7a-ac06-dc17bda45652" />
        </performer>
        <hasMember>
          <!--2.16.840.1.113883.10.20.22.4.27-->
          <!--2.16.840.1.113883.10.20.22.4.27:2014-06-09-->
          <reference value="urn:uuid:3346ebda-00ce-45a8-bbb1-90d389f01637" />
        </hasMember>
        <hasMember>
          <!--2.16.840.1.113883.10.20.22.4.27-->
          <!--2.16.840.1.113883.10.20.22.4.27:2014-06-09-->
          <reference value="urn:uuid:0ac96ebc-9993-464e-b2c6-c5659362f3c9" />
        </hasMember>
        <hasMember>
          <!--2.16.840.1.113883.10.20.22.4.27-->
          <!--2.16.840.1.113883.10.20.22.4.27:2014-06-09-->
          <reference value="urn:uuid:e5e55229-fdbf-477d-8d80-e092700528aa" />
        </hasMember>
        <hasMember>
          <!--2.16.840.1.113883.10.20.22.4.27-->
          <!--2.16.840.1.113883.10.20.22.4.27:2014-06-09-->
          <reference value="urn:uuid:eb288253-5348-485a-9125-dfed469c2bdb" />
        </hasMember>
        <hasMember>
          <!--2.16.840.1.113883.10.20.22.4.27-->
          <!--2.16.840.1.113883.10.20.22.4.27:2014-06-09-->
          <reference value="urn:uuid:3c06bab4-1e66-4692-975e-67aee3110b30" />
        </hasMember>
        <hasMember>
          <!--2.16.840.1.113883.10.20.22.4.27-->
          <!--2.16.840.1.113883.10.20.22.4.27:2014-06-09-->
          <reference value="urn:uuid:d10227a4-6b13-4950-959f-bf84900c3dcb" />
        </hasMember>
        <hasMember>
          <!--2.16.840.1.113883.10.20.22.4.27-->
          <!--2.16.840.1.113883.10.20.22.4.27:2014-06-09-->
          <reference value="urn:uuid:00c5b1e8-c983-4732-bee0-88aac1e15b24" />
        </hasMember>
        <hasMember>
          <!--2.16.840.1.113883.10.20.22.4.27-->
          <!--2.16.840.1.113883.10.20.22.4.27:2014-06-09-->
          <reference value="urn:uuid:f96fc718-3c24-4a8a-9661-da0c2ec46f4e" />
        </hasMember>
        <hasMember>
          <!--2.16.840.1.113883.10.20.22.4.27-->
          <!--2.16.840.1.113883.10.20.22.4.27:2014-06-09-->
          <reference value="urn:uuid:db15c78c-a120-4c5d-ad4b-70a86802e4a3" />
        </hasMember>
      </Observation>
    </resource>
  </entry>
  <entry>
    <fullUrl value="urn:uuid:3346ebda-00ce-45a8-bbb1-90d389f01637" />
    <resource>
      <Observation>
        <meta>
          <profile value="http://hl7.org/fhir/us/core/StructureDefinition/us-core-vitalsigns" />
          <!--CDA templateId: urn:hl7ii:2.16.840.1.113883.10.20.22.4.27:2014-06-09-->
        </meta>
        <identifier>
          <system value="urn:ietf:rfc:3986" />
          <value value="urn:uuid:2721acc5-0d05-4402-9e62-79943ea3901c" />
        </identifier>
        <status value="final" />
        <category>
          <coding>
            <system value="http://terminology.hl7.org/CodeSystem/observation-category" />
            <code value="vital-signs" />
          </coding>
        </category>
        <code>
          <coding>
            <system value="http://loinc.org" />
            <code value="8480-6" />
            <display value="SYSTOLIC BLOOD PRESSURE" />
          </coding>
        </code>
        <subject>
          <reference value="urn:uuid:623cfa69-d346-4077-ab8b-a87e21ee7161" />
        </subject>
        <effectiveDateTime value="2014-05-20T19:36:05.000-05:00" />
        <performer>
          <reference value="urn:uuid:b17760e1-2092-4b7a-ac06-dc17bda45652" />
        </performer>
        <valueQuantity>
          <value value="120" />
          <unit value="mm[Hg]" />
        </valueQuantity>
      </Observation>
    </resource>
  </entry>
  <entry>
    <fullUrl value="urn:uuid:0ac96ebc-9993-464e-b2c6-c5659362f3c9" />
    <resource>
      <Observation>
        <meta>
          <profile value="http://hl7.org/fhir/us/core/StructureDefinition/us-core-vitalsigns" />
          <!--CDA templateId: urn:hl7ii:2.16.840.1.113883.10.20.22.4.27:2014-06-09-->
        </meta>
        <identifier>
          <system value="urn:ietf:rfc:3986" />
          <value value="urn:uuid:88a01c83-a096-4705-a992-b5f59eca8c8c" />
        </identifier>
        <status value="final" />
        <category>
          <coding>
            <system value="http://terminology.hl7.org/CodeSystem/observation-category" />
            <code value="vital-signs" />
          </coding>
        </category>
        <code>
          <coding>
            <system value="http://loinc.org" />
            <code value="8462-4" />
            <display value="DIASTOLIC BLOOD PRESSURE" />
          </coding>
        </code>
        <subject>
          <reference value="urn:uuid:623cfa69-d346-4077-ab8b-a87e21ee7161" />
        </subject>
        <effectiveDateTime value="2014-05-20T19:36:05.000-05:00" />
        <performer>
          <reference value="urn:uuid:b17760e1-2092-4b7a-ac06-dc17bda45652" />
        </performer>
        <valueQuantity>
          <value value="80" />
          <unit value="mm[Hg]" />
        </valueQuantity>
      </Observation>
    </resource>
  </entry>
  <entry>
    <fullUrl value="urn:uuid:e5e55229-fdbf-477d-8d80-e092700528aa" />
    <resource>
      <Observation>
        <meta>
          <profile value="http://hl7.org/fhir/us/core/StructureDefinition/us-core-vitalsigns" />
          <!--CDA templateId: urn:hl7ii:2.16.840.1.113883.10.20.22.4.27:2014-06-09-->
        </meta>
        <identifier>
          <system value="urn:ietf:rfc:3986" />
          <value value="urn:uuid:83bbffe1-54e5-4984-a32d-ad8f8d6896d8" />
        </identifier>
        <status value="final" />
        <category>
          <coding>
            <system value="http://terminology.hl7.org/CodeSystem/observation-category" />
            <code value="vital-signs" />
          </coding>
        </category>
        <code>
          <coding>
            <system value="http://loinc.org" />
            <code value="8867-4" />
            <display value="HEART RATE" />
          </coding>
        </code>
        <subject>
          <reference value="urn:uuid:623cfa69-d346-4077-ab8b-a87e21ee7161" />
        </subject>
        <effectiveDateTime value="2014-05-20T19:36:05.000-05:00" />
        <performer>
          <reference value="urn:uuid:b17760e1-2092-4b7a-ac06-dc17bda45652" />
        </performer>
        <valueQuantity>
          <value value="80" />
          <unit value="/min" />
        </valueQuantity>
      </Observation>
    </resource>
  </entry>
  <entry>
    <fullUrl value="urn:uuid:eb288253-5348-485a-9125-dfed469c2bdb" />
    <resource>
      <Observation>
        <meta>
          <profile value="http://hl7.org/fhir/us/core/StructureDefinition/us-core-vitalsigns" />
          <!--CDA templateId: urn:hl7ii:2.16.840.1.113883.10.20.22.4.27:2014-06-09-->
        </meta>
        <identifier>
          <system value="urn:ietf:rfc:3986" />
          <value value="urn:uuid:85f5784f-2958-4321-b7b6-3030d1577dc0" />
        </identifier>
        <status value="final" />
        <category>
          <coding>
            <system value="http://terminology.hl7.org/CodeSystem/observation-category" />
            <code value="vital-signs" />
          </coding>
        </category>
        <code>
          <coding>
            <system value="http://loinc.org" />
            <code value="8310-5" />
            <display value="BODY TEMPERATURE" />
          </coding>
        </code>
        <subject>
          <reference value="urn:uuid:623cfa69-d346-4077-ab8b-a87e21ee7161" />
        </subject>
        <effectiveDateTime value="2014-05-20T19:36:05.000-05:00" />
        <performer>
          <reference value="urn:uuid:b17760e1-2092-4b7a-ac06-dc17bda45652" />
        </performer>
        <valueQuantity>
          <value value="99.0" />
          <unit value="[degF]" />
        </valueQuantity>
      </Observation>
    </resource>
  </entry>
  <entry>
    <fullUrl value="urn:uuid:3c06bab4-1e66-4692-975e-67aee3110b30" />
    <resource>
      <Observation>
        <meta>
          <profile value="http://hl7.org/fhir/us/core/StructureDefinition/us-core-vitalsigns" />
          <!--CDA templateId: urn:hl7ii:2.16.840.1.113883.10.20.22.4.27:2014-06-09-->
        </meta>
        <identifier>
          <system value="urn:ietf:rfc:3986" />
          <value value="urn:uuid:b618fa98-6596-4e19-a9e7-6bdb48012fc8" />
        </identifier>
        <status value="final" />
        <category>
          <coding>
            <system value="http://terminology.hl7.org/CodeSystem/observation-category" />
            <code value="vital-signs" />
          </coding>
        </category>
        <code>
          <coding>
            <system value="http://loinc.org" />
            <code value="9279-1" />
            <display value="RESPIRATORY RATE" />
          </coding>
        </code>
        <subject>
          <reference value="urn:uuid:623cfa69-d346-4077-ab8b-a87e21ee7161" />
        </subject>
        <effectiveDateTime value="2014-05-20T19:36:05.000-05:00" />
        <performer>
          <reference value="urn:uuid:b17760e1-2092-4b7a-ac06-dc17bda45652" />
        </performer>
        <valueQuantity>
          <value value="18" />
          <unit value="/min" />
        </valueQuantity>
      </Observation>
    </resource>
  </entry>
  <entry>
    <fullUrl value="urn:uuid:d10227a4-6b13-4950-959f-bf84900c3dcb" />
    <resource>
      <Observation>
        <meta>
          <profile value="http://hl7.org/fhir/us/core/StructureDefinition/us-core-vitalsigns" />
          <!--CDA templateId: urn:hl7ii:2.16.840.1.113883.10.20.22.4.27:2014-06-09-->
        </meta>
        <identifier>
          <system value="urn:ietf:rfc:3986" />
          <value value="urn:uuid:1b1274a9-b45f-449a-8493-08eaeaeba7d6" />
        </identifier>
        <status value="final" />
        <category>
          <coding>
            <system value="http://terminology.hl7.org/CodeSystem/observation-category" />
            <code value="vital-signs" />
          </coding>
        </category>
        <code>
          <coding>
            <system value="http://loinc.org" />
            <code value="8302-2" />
            <display value="HEIGHT" />
          </coding>
        </code>
        <subject>
          <reference value="urn:uuid:623cfa69-d346-4077-ab8b-a87e21ee7161" />
        </subject>
        <effectiveDateTime value="2014-05-20T19:36:05.000-05:00" />
        <performer>
          <reference value="urn:uuid:b17760e1-2092-4b7a-ac06-dc17bda45652" />
        </performer>
        <valueQuantity>
          <value value="67" />
          <unit value="[in_us]" />
        </valueQuantity>
      </Observation>
    </resource>
  </entry>
  <entry>
    <fullUrl value="urn:uuid:00c5b1e8-c983-4732-bee0-88aac1e15b24" />
    <resource>
      <Observation>
        <meta>
          <profile value="http://hl7.org/fhir/us/core/StructureDefinition/us-core-vitalsigns" />
          <!--CDA templateId: urn:hl7ii:2.16.840.1.113883.10.20.22.4.27:2014-06-09-->
        </meta>
        <identifier>
          <system value="urn:ietf:rfc:3986" />
          <value value="urn:uuid:1c1f89f1-8e93-4a46-b37f-9434f99727b8" />
        </identifier>
        <status value="final" />
        <category>
          <coding>
            <system value="http://terminology.hl7.org/CodeSystem/observation-category" />
            <code value="vital-signs" />
          </coding>
        </category>
        <code>
          <coding>
            <system value="http://loinc.org" />
            <code value="3141-9" />
            <display value="WEIGHT" />
          </coding>
        </code>
        <subject>
          <reference value="urn:uuid:623cfa69-d346-4077-ab8b-a87e21ee7161" />
        </subject>
        <effectiveDateTime value="2014-05-20T19:36:05.000-05:00" />
        <performer>
          <reference value="urn:uuid:b17760e1-2092-4b7a-ac06-dc17bda45652" />
        </performer>
        <valueQuantity>
          <value value="239.9" />
          <unit value="[lb_av]" />
        </valueQuantity>
      </Observation>
    </resource>
  </entry>
  <entry>
    <fullUrl value="urn:uuid:f96fc718-3c24-4a8a-9661-da0c2ec46f4e" />
    <resource>
      <Observation>
        <meta>
          <profile value="http://hl7.org/fhir/us/core/StructureDefinition/us-core-vitalsigns" />
          <!--CDA templateId: urn:hl7ii:2.16.840.1.113883.10.20.22.4.27:2014-06-09-->
        </meta>
        <identifier>
          <system value="urn:ietf:rfc:3986" />
          <value value="urn:uuid:fd4ccd0b-c045-4587-8976-a17e2e064a1e" />
        </identifier>
        <status value="final" />
        <category>
          <coding>
            <system value="http://terminology.hl7.org/CodeSystem/observation-category" />
            <code value="vital-signs" />
          </coding>
        </category>
        <code>
          <coding>
            <system value="http://loinc.org" />
            <code value="39156-5" />
            <display value="BODY MASS INDEX" />
          </coding>
        </code>
        <subject>
          <reference value="urn:uuid:623cfa69-d346-4077-ab8b-a87e21ee7161" />
        </subject>
        <effectiveDateTime value="2014-05-20T19:36:05.000-05:00" />
        <performer>
          <reference value="urn:uuid:b17760e1-2092-4b7a-ac06-dc17bda45652" />
        </performer>
        <valueQuantity>
          <value value="37.58" />
          <unit value="kg/m2" />
        </valueQuantity>
      </Observation>
    </resource>
  </entry>
  <entry>
    <fullUrl value="urn:uuid:db15c78c-a120-4c5d-ad4b-70a86802e4a3" />
    <resource>
      <Observation>
        <meta>
          <profile value="http://hl7.org/fhir/us/core/StructureDefinition/us-core-vitalsigns" />
          <!--CDA templateId: urn:hl7ii:2.16.840.1.113883.10.20.22.4.27:2014-06-09-->
        </meta>
        <identifier>
          <system value="urn:ietf:rfc:3986" />
          <value value="urn:uuid:0ef4afda-1638-4ad2-9978-7321bbceb0cb" />
        </identifier>
        <status value="final" />
        <category>
          <coding>
            <system value="http://terminology.hl7.org/CodeSystem/observation-category" />
            <code value="vital-signs" />
          </coding>
        </category>
        <code>
          <coding>
            <system value="http://loinc.org" />
            <code value="2710-2" />
            <display value="OXYGEN SATURATION" />
          </coding>
        </code>
        <subject>
          <reference value="urn:uuid:623cfa69-d346-4077-ab8b-a87e21ee7161" />
        </subject>
        <effectiveDateTime value="2014-05-20T19:36:05.000-05:00" />
        <performer>
          <reference value="urn:uuid:b17760e1-2092-4b7a-ac06-dc17bda45652" />
        </performer>
        <valueQuantity>
          <value value="98" />
          <unit value="%" />
        </valueQuantity>
      </Observation>
    </resource>
  </entry>
</Bundle>
