<?xml version="1.0" encoding="UTF-8"?>
<Bundle xmlns="http://hl7.org/fhir">
   <id value="bundle-rr-collection-communication"/>
   <identifier>
      <system value="urn:ietf:rfc:3986"/>
      <value value="urn:uuid:e9a61fc0-e54d-4d15-b240-f7e98537e967"/>
   </identifier>
   <type value="collection"/>
   <timestamp value="2017-11-14T12:15:00.000-07:00"/>
   <entry>
      <fullUrl value="urn:uuid:bac75e94-5e0d-4fd3-8d3e-8a3f3cf7837d"/>
      <resource>
         <Communication>
            <id value="RR-communication-d36e13"/>
            <meta>
               <profile value="http://hl7.org/fhir/us/ecr/StructureDefinition/rr-communication"/>
               <!--CDA templateId: urn:hl7ii:2.16.840.1.113883.10.20.15.2.1.2:2017-04-01-->
            </meta>
            <extension url="http://hl7.org/fhir/us/ecr/StructureDefinition/rr-priority-extension">
               <valueCodeableConcept>
                  <coding>
                     <system value="http://phinvads.cdc.gov/2.16.840.1.114222.4.5.274"/>
                     <code value="RRVS14"/>
                     <display value="Action required"/>
                  </coding>
               </valueCodeableConcept>
            </extension>
            <extension url="http://hl7.org/fhir/us/ecr/StructureDefinition/rr-transformed-from-cda-extension">
               <valueIdentifier>
                  <system value="urn:ietf:rfc:3986"/>
                  <value value="urn:uuid:db734647-fc99-424c-a864-7e3cda82e703"/>
               </valueIdentifier>
            </extension>
            <identifier>
               <system value="urn:ietf:rfc:3986"/>
               <value value="urn:uuid:18218889-5d7d-47d4-b329-31bb1c28d3b3"/>
            </identifier>
            <status value="completed"/>
            <category>
               <coding>
                  <system value="http://loinc.org"/>
                  <code value="88085-6"/>
                  <display value="Reportability response report Document Public health"/>
               </coding>
            </category>
            <subject>
               <reference value="urn:uuid:a8974fc2-8610-47ba-a00e-b486c91025bb"/>
            </subject>
            <topic>
               <text value="Subject: Public Health Reporting Communication: one or more conditions are reportable, or may be reportable, to public health."/>
            </topic>
            <encounter>
               <reference value="urn:uuid:67705207-dd00-4400-9d24-232fe427b6b6"/>
            </encounter>
            <sent value="2017-11-14T12:15:00.000-07:00"/>
            <recipient>
               <reference value="urn:uuid:1f80ba53-2fc6-403d-ab19-569032999a29"/>
            </recipient>
            <sender>
               <reference value="urn:uuid:fc9e2b0e-e8da-4fdc-a17c-1c544c8cf304"/>
            </sender>
            <!--<payload id="reportability-response-summary">
               <contentString value="Your organization electronically submitted an initial case report to determine if reporting to public health is needed for a patient. &#34;Zika virus disease (disorder)&#34; is reportable to &#34;State Department of Health&#34;. An initial case report was sent to &#34;State Department of Health&#34;. Additional information may be required for this report."/>
            </payload>-->
            <payload id="eicr-information">
               <extension id="eicr-processing-status"
                          url="http://hl7.org/fhir/us/ecr/StructureDefinition/rr-eicr-processing-status-extension">
                  <extension url="eICRProcessingStatus">
                     <valueReference>
                        <reference value="urn:uuid:6458262e-2c39-40bf-a82e-464fa9bac7b1"/>
                     </valueReference>
                  </extension>
                  <extension url="eICRValidationOutput">
                     <valueString value="test"/>
                  </extension>
               </extension>
               <extension url="http://hl7.org/fhir/us/ecr/StructureDefinition/eicr-initiation-type-extension">
                  <valueCodeableConcept>
                     <coding>
                        <system value="http://phinvads.cdc.gov/2.16.840.1.114222.4.5.274"/>
                        <code value="PHC1464"/>
                        <display value="Manually Initiated eICR"/>
                     </coding>
                  </valueCodeableConcept>
               </extension>
               <extension url="http://hl7.org/fhir/us/ecr/StructureDefinition/rr-eicr-receipt-time-extension">
                  <extension url="extensionEICRReceiptTime">
                     <valueDateTime value="2016-11-07T09:44:21.000-05:15"/>
                  </extension>
               </extension>
               <contentReference>
                  <identifier>
                     <system value="urn:ietf:rfc:3986"/>
                     <value value="urn:uuid:db734647-fc99-424c-a864-7e3cda82e703"/>
                  </identifier>
                  <display value="CDAR2_IG_PHCR_R2_RR_D1_2019MAY_SAMPLE.xml"/>
               </contentReference>
            </payload>
            <payload id="relevant-reportable-condition">
               <contentReference>
                  <reference value="urn:uuid:166e506a-73a3-4383-be58-7c7a703c13c6"/>
               </contentReference>
            </payload>
         </Communication>
      </resource>
   </entry>
   <entry>
      <fullUrl value="urn:uuid:a8974fc2-8610-47ba-a00e-b486c91025bb"/>
      <resource>
         <Patient>
            <meta>
               <profile value="http://hl7.org/fhir/us/ecr/StructureDefinition/ecr-patient"/>
               <!--CDA participant: ClinicalDocument[templateId/@root='2.16.840.1.113883.10.20.15.2.1.2']/recordTarget-->
            </meta>
            <text>
               <status value="generated"/>
               <div xmlns="http://www.w3.org/1999/xhtml">
                  <h1>Everywoman, Eve</h1>
                  <p>Telecom: tel:+1-555-555-2003</p>
                  <p>Telecom: tel:+1-555-555-5555</p>
                  <p>Address: 2222 Home Street<br/>Ann Arbor<br/>MI<br/>99999<br/>County<br/>US</p>
                  <p>Gender: F</p>
                  <p>Birthdate: 1990-04-20</p>
                  <p>Language: pt</p>
               </div>
            </text>
            <extension url="http://hl7.org/fhir/us/core/StructureDefinition/us-core-race">
               <extension url="ombCategory">
                  <valueCoding>
                     <system value="urn:oid:2.16.840.1.113883.6.238"/>
                     <code value="2106-3"/>
                     <display value="White"/>
                  </valueCoding>
               </extension>
               <extension url="text">
                  <valueString value="White"/>
               </extension>
            </extension>
            <extension url="http://hl7.org/fhir/us/core/StructureDefinition/us-core-ethnicity">
               <extension url="ombCategory">
                  <valueCoding>
                     <system value="urn:oid:2.16.840.1.113883.6.238"/>
                     <code value="2135-2"/>
                     <display value="Hispanic or Latino"/>
                  </valueCoding>
               </extension>
               <extension url="text">
                  <valueString value="Hispanic or Latino"/>
               </extension>
            </extension>
            <identifier>
               <system value="urn:oid:2.16.840.1.113883.19.5"/>
               <value value="123453"/>
            </identifier>
            <identifier>
               <system value="http://hl7.org/fhir/sid/us-ssn"/>
               <value value="111-00-1234"/>
            </identifier>
            <name>
               <use value="usual"/>
               <text value="Everywoman, Eve (usual name)"/>
               <family value="Everywoman"/>
               <given value="Eve"/>
            </name>
            <telecom>
               <system value="phone"/>
               <value value="+1-555-555-2003"/>
               <use value="home"/>
            </telecom>
            <telecom>
               <system value="phone"/>
               <value value="+1-555-555-5555"/>
               <use value="work"/>
            </telecom>
            <gender value="female"/>
            <birthDate value="1990-04-20"/>
            <deceasedBoolean value="false"/>
            <address>
               <use value="home"/>
               <line value="2222 Home Street"/>
               <city value="Ann Arbor"/>
               <district value="County"/>
               <state value="MI"/>
               <postalCode value="99999"/>
               <country value="US"/>
            </address>
            <communication>
               <language>
                  <coding>
                     <code value="pt"/>
                  </coding>
               </language>
               <preferred value="true"/>
            </communication>
         </Patient>
      </resource>
   </entry>
   <entry>
      <fullUrl value="urn:uuid:67705207-dd00-4400-9d24-232fe427b6b6"/>
      <resource>
         <Encounter>
            <identifier>
               <system value="urn:oid:2.16.840.1.113883.19"/>
               <value value="9937012"/>
            </identifier>
            <status value="finished"/>
            <class>
               <system value="http://terminology.hl7.org/CodeSystem/v3-ActCode"/>
               <code value="AMB"/>
               <display value="Ambulatory"/>
            </class>
            <type>
               <coding>
                  <system value="http://www.ama-assn.org/go/cpt"/>
                  <code value="99213"/>
                  <display value="Office outpatient visit 15 minutes"/>
               </coding>
            </type>
            <subject>
               <reference value="urn:uuid:a8974fc2-8610-47ba-a00e-b486c91025bb"/>
            </subject>
            <participant>
               <individual>
                  <reference value="urn:uuid:37fbed2f-bd4f-4f36-8804-59dc46b1dc43"/>
               </individual>
            </participant>
            <period>
               <start value="2017-11-14T10:00:00.000-07:00"/>
               <end value="2017-11-14T10:15:00.000-07:00"/>
            </period>
            <location>
               <location>
                  <reference value="urn:uuid:a12cde55-f105-4124-9eb9-36170cbb1555"/>
               </location>
            </location>
            <serviceProvider>
               <reference value="urn:uuid:36a70c0e-0234-4036-93a8-494fe358cee8"/>
            </serviceProvider>
         </Encounter>
      </resource>
   </entry>
   <entry>
      <fullUrl value="urn:uuid:37fbed2f-bd4f-4f36-8804-59dc46b1dc43"/>
      <resource>
         <PractitionerRole><!--responsibleParty/assignedEntity-->
            <identifier>
               <system value="http://hl7.org/fhir/sid/us-npi"/>
               <value value="6666666666666"/>
            </identifier>
            <practitioner>
               <reference value="urn:uuid:4f68457e-384f-4d3c-a591-46a48f653d15"/>
            </practitioner>
            <organization>
               <reference value="urn:uuid:5355e7e1-a318-4d8c-8c82-dc91c4ff41c5"/>
            </organization>
            <telecom>
               <system value="phone"/>
               <value value="+1-555-555-1002"/>
               <use value="work"/>
            </telecom>
            <telecom>
               <system value="fax"/>
               <value value="+1-555-955-1002"/>
               <use value="work"/>
            </telecom>
            <telecom>
               <system value="email"/>
               <value value="henrysevenmd@email.net"/>
               <use value="work"/>
            </telecom>
         </PractitionerRole>
      </resource>
   </entry>
   <entry>
      <fullUrl value="urn:uuid:4f68457e-384f-4d3c-a591-46a48f653d15"/>
      <resource>
         <Practitioner><!--assignedEntity[cda:id[@root="2.16.840.1.113883.4.6"]]/assignedPerson-->
            <meta>
               <profile value="http://hl7.org/fhir/us/core/StructureDefinition/us-core-practitioner"/>
            </meta>
            <text>
               <status value="generated"/>
               <div xmlns="http://www.w3.org/1999/xhtml">
                  <p>Name: Seven, Henry</p>
                  <p>---TODO: ID info---</p>
                  <p>Telephone: tel:+1-555-555-1002 fax:+1-555-955-1002 mailto:henrysevenmd@email.net</p>
               </div>
            </text>
            <identifier>
               <system value="http://hl7.org/fhir/sid/us-npi"/>
               <value value="6666666666666"/>
            </identifier>
            <name>
               <text value="Seven, Dr. Henry"/>
               <family value="Seven"/>
               <given value="Henry"/>
               <prefix value="Dr."/>
            </name>
            <telecom>
               <system value="phone"/>
               <value value="+1-555-555-1002"/>
               <use value="work"/>
            </telecom>
            <telecom>
               <system value="fax"/>
               <value value="+1-555-955-1002"/>
               <use value="work"/>
            </telecom>
            <telecom>
               <system value="email"/>
               <value value="henrysevenmd@email.net"/>
               <use value="work"/>
            </telecom>
            <address>
               <line value="1002 Healthcare Drive"/>
               <city value="Ann Arbor"/>
               <state value="MI"/>
               <postalCode value="99999"/>
               <country value="US"/>
            </address>
         </Practitioner>
      </resource>
   </entry>
   <entry>
      <fullUrl value="urn:uuid:5355e7e1-a318-4d8c-8c82-dc91c4ff41c5"/>
      <resource>
         <Organization>
            <identifier>
               <system value="urn:ietf:rfc:3986"/>
               <value value="urn:uuid:5355e7e1-a318-4d8c-8c82-dc91c4ff41c5"/>
            </identifier>
            <active value="true"/>
            <name value="RepresentedOrganization Level Seven Healthcare, Inc."/>
            <telecom>
               <system value="phone"/>
               <value value="+1-555-555-1002"/>
               <use value="work"/>
            </telecom>
            <telecom>
               <system value="fax"/>
               <value value="+1-555-955-1002"/>
               <use value="work"/>
            </telecom>
            <telecom>
               <system value="email"/>
               <value value="henrysevenmd@email.net"/>
               <use value="work"/>
            </telecom>
            <address>
               <line value="4444 Healthcare Drive"/>
               <city value="Ann Arbor"/>
               <state value="MI"/>
               <postalCode value="99999"/>
               <country value="US"/>
            </address>
         </Organization>
      </resource>
   </entry>
   <entry>
      <fullUrl value="urn:uuid:a12cde55-f105-4124-9eb9-36170cbb1555"/>
      <resource>
         <Location>
            <identifier>
               <system value="http://hl7.org/fhir/sid/us-npi"/>
               <value value="77777777777"/>
            </identifier>
            <name value="SerivceProviderOrganization Level Seven Healthcare, Inc."/>
            <type>
               <coding>
                  <system value="http://terminology.hl7.org/CodeSystem/v3-RoleCode"/>
                  <code value="OF"/>
                  <display value="Outpatient facility"/>
               </coding>
            </type>
            <telecom>
               <system value="phone"/>
               <value value="+1(555)555-3001"/>
               <use value="work"/>
            </telecom>
            <address>
               <line value="Clinic Bldg A, 4444 Healthcare Drive"/>
               <city value="Ann Arbor"/>
               <state value="MI"/>
               <postalCode value="99999"/>
               <country value="US"/>
            </address>
         </Location>
      </resource>
   </entry>
   <entry>
      <fullUrl value="urn:uuid:36a70c0e-0234-4036-93a8-494fe358cee8"/>
      <resource>
         <Organization>
            <identifier>
               <system value="urn:ietf:rfc:3986"/>
               <value value="urn:uuid:36a70c0e-0234-4036-93a8-494fe358cee8"/>
            </identifier>
            <active value="true"/>
            <name value="SerivceProviderOrganization Level Seven Healthcare, Inc."/>
            <telecom>
               <system value="phone"/>
               <value value="+1(555)555-3001"/>
               <use value="work"/>
            </telecom>
            <address>
               <line value="Clinic Bldg A, 4444 Healthcare Drive"/>
               <city value="Ann Arbor"/>
               <state value="MI"/>
               <postalCode value="99999"/>
               <country value="US"/>
            </address>
         </Organization>
      </resource>
   </entry>
   <entry>
      <fullUrl value="urn:uuid:a35d0028-3ae4-462f-8887-736f4e29302c"/>
      <resource>
         <Location><!--cda:assignedAuthor[cda:assignedAuthoringDevice]-->
            <telecom>
               <system value="phone"/>
               <value value="+1-(555)555-1002;ext=9998"/>
               <use value="work"/>
            </telecom>
            <address>
               <line value="1002 Healthcare Drive"/>
               <city value="Ann Arbor"/>
               <state value="MI"/>
               <postalCode value="99999"/>
               <country value="US"/>
            </address>
         </Location>
      </resource>
   </entry>
   <entry>
      <fullUrl value="urn:uuid:fc9e2b0e-e8da-4fdc-a17c-1c544c8cf304"/>
      <resource>
         <Device>
            <identifier>
               <system value="urn:ietf:rfc:3986"/>
               <value value="urn:oid:2.16.840.1.113883.3.72.5.20"/>
            </identifier>
            <!--cda:assignedAuthoringDevice-->
            <modelNumber value="RR Authoring Platform"/>
            <version>
               <value value="RR Authoring Platform"/>
            </version>
            <location>
               <reference value="urn:uuid:a35d0028-3ae4-462f-8887-736f4e29302c"/>
            </location>
         </Device>
      </resource>
   </entry>
   <entry>
      <fullUrl value="urn:uuid:be1c0dd2-bc91-42bb-b3df-b9f50e2a5983"/>
      <resource>
         <Organization>
            <identifier>
               <system value="http://hl7.org/fhir/sid/us-npi"/>
               <value value="88888888"/>
            </identifier>
            <active value="true"/>
            <name value="Custodian Level Seven Healthcare, Inc."/>
            <telecom>
               <system value="phone"/>
               <value value="+1(555)555-3001"/>
               <use value="work"/>
            </telecom>
            <address>
               <line value="4444 Healthcare Drive"/>
               <city value="Ann Arbor"/>
               <state value="MI"/>
               <postalCode value="99999"/>
               <country value="US"/>
            </address>
         </Organization>
      </resource>
   </entry>
   <entry>
      <fullUrl value="urn:uuid:1f80ba53-2fc6-403d-ab19-569032999a29"/>
      <resource>
         <Organization>
            <identifier>
               <system value="urn:ietf:rfc:3986"/>
               <value value="urn:uuid:1f80ba53-2fc6-403d-ab19-569032999a29"/>
            </identifier>
            <active value="true"/>
            <name value="ReceivedOrganization Level Seven Healthcare, Inc."/>
            <telecom>
               <system value="phone"/>
               <value value="+1-555-555-1002"/>
               <use value="work"/>
            </telecom>
            <telecom>
               <system value="fax"/>
               <value value="+1-555-955-1002"/>
               <use value="work"/>
            </telecom>
            <telecom>
               <system value="email"/>
               <value value="henrysevenmd@email.net"/>
               <use value="work"/>
            </telecom>
            <address>
               <line value="4444 Healthcare Drive"/>
               <city value="Ann Arbor"/>
               <state value="MI"/>
               <postalCode value="99999"/>
               <country value="US"/>
            </address>
         </Organization>
      </resource>
   </entry>
   <!--No template match for 2.16.840.1.113883.10.20.22.4.20: 2014-06-09-->
   <!--No template match for 2.16.840.1.113883.10.20.15.2.3.7: 2017-04-01-->
   <!--No template match for 2.16.840.1.113883.10.20.22.4.20: 2014-06-09-->
   <!--No template match for 2.16.840.1.113883.10.20.15.2.3.8: 2017-04-01-->
   <entry>
      <fullUrl value="urn:uuid:166e506a-73a3-4383-be58-7c7a703c13c6"/>
      <resource>
         <PlanDefinition>
            <meta>
               <profile value="http://hl7.org/fhir/us/ecr/StructureDefinition/rr-relevant-reportable-condition-plandefinition"/>
            </meta>
            <extension url="http://hl7.org/fhir/us/ecr/StructureDefinition/extension-rr-determination-of-reportability">
               <valueCodeableConcept>
                  <coding>
                     <system value="http://phinvads.cdc.gov/2.16.840.1.114222.4.5.274"/>
                     <code value="RRVS1"/>
                     <display value="Reportable"/>
                  </coding>
               </valueCodeableConcept>
            </extension>
            <extension url="http://hl7.org/fhir/us/ecr/StructureDefinition/extension-rr-determination-of-reportability-reason">
               <valueString value="Reason for determination of reportability"/>
            </extension>
            <extension url="http://hl7.org/fhir/us/ecr/StructureDefinition/extension-rr-determination-of-reportability-rule">
               <valueString value="Rule used in reportability determination"/>
            </extension>
            <status value="active"/>
            <publisher>
               <extension url="http://hl7.org/fhir/us/ecr/StructureDefinition/rr-rules-authoring-agency-organization-extension">
                  <valueReference>
                     <reference value="urn:uuid:186007ce-0fe2-42fd-ba93-84f77f00ac84"/>
                  </valueReference>
               </extension>
            </publisher>
            <jurisdiction>
               <extension url="http://hl7.org/fhir/us/ecr/StructureDefinition/extension-rr-location-relevance">
                  <valueCodeableConcept>
                     <coding>
                        <system value="http://phinvads.cdc.gov/2.16.840.1.114222.4.5.274"/>
                        <code value="RRVS7"/>
                        <display value="Both patient home address and provider facility address"/>
                     </coding>
                  </valueCodeableConcept>
               </extension>
               <extension url="http://hl7.org/fhir/us/ecr/StructureDefinition/extension-ecr-organization">
                  <valueReference>
                     <reference value="urn:uuid:f47654b8-1236-488b-bf02-357e2ed6b680"/>
                  </valueReference>
               </extension>
               <extension url="http://hl7.org/fhir/us/ecr/StructureDefinition/extension-ecr-organization">
                  <valueReference>
                     <reference value="urn:uuid:1ebce2b2-0ef6-42e0-9bd8-3cd516eca764"/>
                  </valueReference>
               </extension>
            </jurisdiction>
            <goal>
               <description>
                  <text value="Reportability Feedback"/>
               </description>
               <addresses>
                  <coding>
                     <system value="http://snomed.info/sct"/>
                     <code value="3928002"/>
                     <display value="Zika virus disease (disorder)"/>
                  </coding>
               </addresses>
            </goal>
            <action>
               <documentation>
                  <extension url="http://hl7.org/fhir/us/ecr/StructureDefinition/extension-rr-external-resource-type">
                     <valueCodeableConcept>
                        <coding>
                           <system value="http://phinvads.cdc.gov/2.16.840.1.114222.4.5.274"/>
                           <code value="RRVS13"/>
                           <display value="Outbreak- or Cluster Related"/>
                        </coding>
                     </valueCodeableConcept>
                  </extension>
                  <extension url="http://hl7.org/fhir/us/ecr/StructureDefinition/extension-rr-priority">
                     <valueCodeableConcept>
                        <coding>
                           <system value="http://phinvads.cdc.gov/2.16.840.1.114222.4.5.274"/>
                           <code value="RRVS18"/>
                           <display value="Immediate action requested"/>
                        </coding>
                     </valueCodeableConcept>
                  </extension>
                  <type value="documentation"/>
                  <display value="Local mosquito-borne Zika virus transmission was reported in your area. Increased watchfulness for symptoms of Zika virus in your patients is warranted."/>
               </documentation>
               <documentation>
                  <extension url="http://hl7.org/fhir/us/ecr/StructureDefinition/extension-rr-external-resource-type">
                     <valueCodeableConcept>
                        <coding>
                           <system value="http://phinvads.cdc.gov/2.16.840.1.114222.4.5.274"/>
                           <code value="RRVS10"/>
                           <display value="Treatment and/or prevention"/>
                        </coding>
                     </valueCodeableConcept>
                  </extension>
                  <extension url="http://hl7.org/fhir/us/ecr/StructureDefinition/extension-rr-priority">
                     <valueCodeableConcept>
                        <coding>
                           <system value="http://phinvads.cdc.gov/2.16.840.1.114222.4.5.274"/>
                           <code value="RRVS18"/>
                           <display value="Immediate action requested"/>
                        </coding>
                     </valueCodeableConcept>
                  </extension>
                  <type value="documentation"/>
                  <display value="Zika has particular risks for pregnant women. Follow-up guidance for pregnant women and couples who are planning pregnancy."/>
                  <url value="http://statedepartmentofhealth.gov/epi/diseases/zika/Zika_Virus_Testing_Guidance.pdf"/>
               </documentation>
               <documentation>
                  <extension url="http://hl7.org/fhir/us/ecr/StructureDefinition/extension-rr-external-resource-type">
                     <valueCodeableConcept>
                        <coding>
                           <system value="http://phinvads.cdc.gov/2.16.840.1.114222.4.5.274"/>
                           <code value="RRVS9"/>
                           <display value="Additional detection and/or laboratory testing needs"/>
                        </coding>
                     </valueCodeableConcept>
                  </extension>
                  <extension url="http://hl7.org/fhir/us/ecr/StructureDefinition/extension-rr-priority">
                     <valueCodeableConcept>
                        <coding>
                           <system value="http://phinvads.cdc.gov/2.16.840.1.114222.4.5.274"/>
                           <code value="RRVS16"/>
                           <display value="Action requested"/>
                        </coding>
                     </valueCodeableConcept>
                  </extension>
                  <type value="documentation"/>
                  <display value="Further Laboratory testing for Zika may be needed. Guidance for additional testing and specimen collection"/>
                  <url value="http://statedepartmentofhealth.gov/epi/diseases/zika/Zika_Virus_Testing_Guidance.pdf"/>
               </documentation>
               <documentation>
                  <extension url="http://hl7.org/fhir/us/ecr/StructureDefinition/extension-rr-external-resource-type">
                     <valueCodeableConcept>
                        <coding>
                           <system value="http://phinvads.cdc.gov/2.16.840.1.114222.4.5.274"/>
                           <code value="RRVS10"/>
                           <display value="Treatment and/or prevention"/>
                        </coding>
                     </valueCodeableConcept>
                  </extension>
                  <extension url="http://hl7.org/fhir/us/ecr/StructureDefinition/extension-rr-priority">
                     <valueCodeableConcept>
                        <coding>
                           <system value="http://phinvads.cdc.gov/2.16.840.1.114222.4.5.274"/>
                           <code value="RRVS15"/>
                           <display value="Information only"/>
                        </coding>
                     </valueCodeableConcept>
                  </extension>
                  <type value="documentation"/>
                  <display value="Treatment guidance"/>
                  <url value="http://statedepartmentofhealth.gov/epi/diseases/zika/Zika_Virus_Testing_Guidance.pdf"/>
               </documentation>
               <documentation>
                  <extension url="http://hl7.org/fhir/us/ecr/StructureDefinition/extension-rr-external-resource-type">
                     <valueCodeableConcept>
                        <coding>
                           <system value="http://phinvads.cdc.gov/2.16.840.1.114222.4.5.274"/>
                           <code value="RRVS12"/>
                           <display value="PHA Contact Information"/>
                        </coding>
                     </valueCodeableConcept>
                  </extension>
                  <extension url="http://hl7.org/fhir/us/ecr/StructureDefinition/extension-rr-priority">
                     <valueCodeableConcept>
                        <coding>
                           <system value="http://phinvads.cdc.gov/2.16.840.1.114222.4.5.274"/>
                           <code value="RRVS15"/>
                           <display value="Information only"/>
                        </coding>
                     </valueCodeableConcept>
                  </extension>
                  <type value="documentation"/>
                  <display value="If you have additional questions regarding Zika or reporting, contact information for the State Department of Health is available here."/>
                  <url value="http://statedepartmentofhealth.gov/epi/diseases/zika/Zika_Virus_Testing_Guidance.pdf"/>
               </documentation>
               <documentation>
                  <extension url="http://hl7.org/fhir/us/ecr/StructureDefinition/extension-rr-external-resource-type">
                     <valueCodeableConcept>
                        <coding>
                           <system value="http://phinvads.cdc.gov/2.16.840.1.114222.4.5.274"/>
                           <code value="RRVS10"/>
                           <display value="Treatment and/or prevention"/>
                        </coding>
                     </valueCodeableConcept>
                  </extension>
                  <extension url="http://hl7.org/fhir/us/ecr/StructureDefinition/extension-rr-priority">
                     <valueCodeableConcept>
                        <coding>
                           <system value="http://phinvads.cdc.gov/2.16.840.1.114222.4.5.274"/>
                           <code value="RRVS15"/>
                           <display value="Information only"/>
                        </coding>
                     </valueCodeableConcept>
                  </extension>
                  <type value="documentation"/>
                  <display value="Control and prevention information for providers"/>
                  <url value="http://statedepartmentofhealth.gov/epi/diseases/zika/plan.pdf"/>
               </documentation>
               <documentation>
                  <extension url="http://hl7.org/fhir/us/ecr/StructureDefinition/extension-rr-external-resource-type">
                     <valueCodeableConcept>
                        <coding>
                           <system value="http://phinvads.cdc.gov/2.16.840.1.114222.4.5.274"/>
                           <code value="RRVS11"/>
                           <display value="Additional Resources"/>
                        </coding>
                     </valueCodeableConcept>
                  </extension>
                  <extension url="http://hl7.org/fhir/us/ecr/StructureDefinition/extension-rr-priority">
                     <valueCodeableConcept>
                        <coding>
                           <system value="http://phinvads.cdc.gov/2.16.840.1.114222.4.5.274"/>
                           <code value="RRVS15"/>
                           <display value="Information only"/>
                        </coding>
                     </valueCodeableConcept>
                  </extension>
                  <type value="documentation"/>
                  <display value="CDC webpage"/>
                  <url value="https://www.cdc.gov/zika/index.html"/>
               </documentation>
               <documentation>
                  <extension url="http://hl7.org/fhir/us/ecr/StructureDefinition/extension-rr-external-resource-type">
                     <valueCodeableConcept>
                        <coding>
                           <system value="http://phinvads.cdc.gov/2.16.840.1.114222.4.5.274"/>
                           <code value="RRVS11"/>
                           <display value="Additional Resources"/>
                        </coding>
                     </valueCodeableConcept>
                  </extension>
                  <extension url="http://hl7.org/fhir/us/ecr/StructureDefinition/extension-rr-priority">
                     <valueCodeableConcept>
                        <coding>
                           <system value="http://phinvads.cdc.gov/2.16.840.1.114222.4.5.274"/>
                           <code value="RRVS15"/>
                           <display value="Information only"/>
                        </coding>
                     </valueCodeableConcept>
                  </extension>
                  <type value="documentation"/>
                  <display value="Patient information factsheet"/>
                  <url value="http://statedepartmentofhealth.gov/epi/diseases/zika/factsheet.pdf"/>
               </documentation>
               <documentation>
                  <extension url="http://hl7.org/fhir/us/ecr/StructureDefinition/extension-rr-external-resource-type">
                     <valueCodeableConcept>
                        <coding>
                           <system value="http://phinvads.cdc.gov/2.16.840.1.114222.4.5.274"/>
                           <code value="RRVS11"/>
                           <display value="Additional Resources"/>
                        </coding>
                     </valueCodeableConcept>
                  </extension>
                  <extension url="http://hl7.org/fhir/us/ecr/StructureDefinition/extension-rr-priority">
                     <valueCodeableConcept>
                        <coding>
                           <system value="http://phinvads.cdc.gov/2.16.840.1.114222.4.5.274"/>
                           <code value="RRVS15"/>
                           <display value="Information only"/>
                        </coding>
                     </valueCodeableConcept>
                  </extension>
                  <type value="documentation"/>
                  <display value="State Resident information"/>
                  <url value="http://statedepartmentofhealth.gov/epi/diseases/zika/ZikaVirus_QA_StateDOH.pdf"/>
               </documentation>
            </action>
         </PlanDefinition>
      </resource>
   </entry>
   <entry xmlns:lcg="http://www.lantanagroup.com">
      <fullUrl value="urn:uuid:20e31e77-483c-4541-b09e-af00e88ec599"/>
      <resource>
         <DocumentReference>
            <status value="current"/>
            <type>
               <coding>
                  <system value="http://loinc.org"/>
                  <code value="55751-2"/>
                  <display value="Public Health Case Report (eICR)"/>
               </coding>
            </type>
            <!--Date of external document's creation is not known?-->
            <content>
               <attachment>
                  <url value="urn:oid:2.16.840.1.113883.19.5.99999.19"/>
               </attachment>
            </content>
         </DocumentReference>
      </resource>
   </entry>
   <entry>
      <fullUrl value="urn:uuid:3650b5c6-d247-4014-a6d2-109fbb3c6558"/>
      <resource>
         <Observation><!--Processing Status Reason-->
            <meta>
               <profile value="http://hl7.org/fhir/us/ecr/StructureDefinition/rr-eicr-processing-status-reason-observation"/>
               <!--CDA templateId: urn:hl7ii:2.16.840.1.113883.10.20.15.2.3.21:2017-04-01-->
            </meta>
            <status value="final"/>
            <code>
               <coding>
                  <system value="urn:oid:2.16.840.1.114222.4.5.274"/>
                  <code value="RR6"/>
                  <display value="eICR Processing Status Reason"/>
               </coding>
            </code>
            <valueCodeableConcept>
               <coding>
                  <system value="http://phinvads.cdc.gov/2.16.840.1.114222.4.5.274"/>
                  <code value="RRVS29"/>
                  <display value="eICR was processed with the warning of: outdated RCTC version"/>
               </coding>
            </valueCodeableConcept>
            <component>
               <code>
                  <coding>
                     <system value="http://phinvads.cdc.gov/2.16.840.1.114222.4.5.274"/>
                     <code value="RRVS31"/>
                     <display value="Outdated RCTC Version Detail"/>
                  </coding>
               </code>
               <valueString value="19/05/2016"/>
            </component>
            <component>
               <code>
                  <coding>
                     <system value="http://phinvads.cdc.gov/2.16.840.1.114222.4.5.274"/>
                     <code value="RRVS33"/>
                     <display value="Expected RCTC Version Detail"/>
                  </coding>
               </code>
               <valueString value="13/10/2017"/>
            </component>
         </Observation>
      </resource>
   </entry>
   <entry>
      <fullUrl value="urn:uuid:6458262e-2c39-40bf-a82e-464fa9bac7b1"/>
      <resource>
         <Observation><!--Processing Status-->
            <meta>
               <profile value="http://hl7.org/fhir/us/ecr/StructureDefinition/rr-eicr-processing-status-observation"/>
               <!--CDA templateId: urn:hl7ii:2.16.840.1.113883.10.20.15.2.3.29:2017-04-01-->
            </meta>
            <status value="final"/>
            <code>
               <coding>
                  <system value="http://phinvads.cdc.gov/2.16.840.1.114222.4.5.274"/>
                  <code value="RRVS20"/>
                  <display value="eICR was processed - with a warning"/>
               </coding>
            </code>
            <hasMember>
               <reference value="urn:uuid:3650b5c6-d247-4014-a6d2-109fbb3c6558"/>
            </hasMember>
         </Observation>
      </resource>
   </entry>
   <!--No template match for 2.16.840.1.113883.10.20.15.2.3.22: 2017-04-01-->
   <entry>
      <fullUrl value="urn:uuid:1ebce2b2-0ef6-42e0-9bd8-3cd516eca764"/>
      <resource>
         <Organization>
            <meta>
               <profile value="http://hl7.org/fhir/us/ecr/StructureDefinition/rr-responsible-agency-organization"/>
            </meta>
            <!--participant[LOC]-->
            <identifier>
               <system value="http://hl7.org/fhir/sid/us-npi"/>
               <value value="12341234"/>
            </identifier>
            <active value="true"/>
            <type>
               <coding>
                  <system value="urn:oid:2.16.840.1.114222.4.5.232"/>
                  <code value="RR8"/>
                  <display value="Responsible Agency"/>
               </coding>
            </type>
            <name value="State Department of Health"/>
            <telecom>
               <system value="phone"/>
               <value value="+1-555-555-3555"/>
               <use value="work"/>
            </telecom>
            <telecom>
               <system value="fax"/>
               <value value="+1-955-555-3555"/>
               <use value="work"/>
            </telecom>
            <telecom>
               <system value="email"/>
               <value value="mail@healthauthoritywest.gov"/>
               <use value="work"/>
            </telecom>
            <telecom>
               <system value="url"/>
               <value value="https://www.healthauthoritywest.gov"/>
               <use value="work"/>
            </telecom>
            <address>
               <use value="work"/>
               <line value="7777 Health Authority Drive"/>
               <city value="Ann Arbor"/>
               <state value="MI"/>
               <postalCode value="99999"/>
            </address>
         </Organization>
      </resource>
   </entry>
   <entry>
      <fullUrl value="urn:uuid:186007ce-0fe2-42fd-ba93-84f77f00ac84"/>
      <resource>
         <Organization>
            <meta>
               <profile value="http://hl7.org/fhir/us/ecr/StructureDefinition/rr-rules-authoring-agency-organization"/>
            </meta>
            <!--participant[LOC]-->
            <identifier>
               <system value="http://hl7.org/fhir/sid/us-npi"/>
               <value value="12341234"/>
            </identifier>
            <active value="true"/>
            <type>
               <coding>
                  <system value="urn:oid:2.16.840.1.114222.4.5.232"/>
                  <code value="RR12"/>
                  <display value="Rules Authoring Agency"/>
               </coding>
            </type>
            <name value="State Department of Health"/>
            <telecom>
               <system value="phone"/>
               <value value="+1-555-555-3555"/>
               <use value="work"/>
            </telecom>
            <telecom>
               <system value="fax"/>
               <value value="+1-955-555-3555"/>
               <use value="work"/>
            </telecom>
            <telecom>
               <system value="email"/>
               <value value="mail@healthauthoritywest.gov"/>
               <use value="work"/>
            </telecom>
            <telecom>
               <system value="url"/>
               <value value="https://www.healthauthoritywest.gov"/>
               <use value="work"/>
            </telecom>
            <address>
               <use value="work"/>
               <line value="7777 Health Authority Drive"/>
               <city value="Ann Arbor"/>
               <state value="MI"/>
               <postalCode value="99999"/>
            </address>
         </Organization>
      </resource>
   </entry>
   <entry>
      <fullUrl value="urn:uuid:f47654b8-1236-488b-bf02-357e2ed6b680"/>
      <resource>
         <Organization>
            <meta>
               <profile value="http://hl7.org/fhir/us/ecr/StructureDefinition/rr-routing-entity-organization"/>
            </meta>
            <!--participant[LOC]-->
            <identifier>
               <system value="http://hl7.org/fhir/sid/us-npi"/>
               <value value="43214321"/>
            </identifier>
            <active value="true"/>
            <type>
               <coding>
                  <system value="urn:oid:2.16.840.1.114222.4.5.232"/>
                  <code value="RR7"/>
                  <display value="Routing Entity"/>
               </coding>
            </type>
            <name value="State Department of Health Routing Agency"/>
            <telecom>
               <system value="phone"/>
               <value value="+1-555-555-3555"/>
               <use value="work"/>
            </telecom>
            <telecom>
               <system value="fax"/>
               <value value="+1-955-555-3555"/>
               <use value="work"/>
            </telecom>
            <telecom>
               <system value="email"/>
               <value value="mail@healthauthoritywest.gov"/>
               <use value="work"/>
            </telecom>
            <telecom>
               <system value="url"/>
               <value value="https://www.healthauthoritywest.gov"/>
               <use value="work"/>
            </telecom>
            <address>
               <use value="work"/>
               <line value="7777 Health Authority Drive"/>
               <city value="Ann Arbor"/>
               <state value="MI"/>
               <postalCode value="99999"/>
            </address>
         </Organization>
      </resource>
   </entry>
</Bundle>
