<?xml version="1.0" encoding="UTF-8"?>
<Bundle
    xmlns="http://hl7.org/fhir">
    <id value="bundle-eicr-document-zika"/>
    <meta>
        <versionId value="8"/>
        <lastUpdated value="2019-10-01T02:34:57.000-04:00"/>
    </meta>
    <identifier>
        <system value="urn:ietf:rfc:3986"/>
        <value value="urn:uuid:0c3eec0b-145b-4694-a1b8-1ea4de5a0cb0"/>
    </identifier>
    <type value="document"/>
    <entry>
        <fullUrl value="http://hl7.org/fhir/us/ecr/Composition/composition-eicr-zika"/>
        <resource>
            <Composition>
                <id value="composition-eicr-zika"/>
                <language value="en-US"/>
                <text>
                    <status value="generated"/>
                    <div
                        xmlns="http://www.w3.org/1999/xhtml">
                        <table style="border: 1pt inset #00008b; line-height: 10pt; width: 100%;" class="header_table">
                            <tbody>
                                <tr>
                                    <td style="width: 20%; background-color: #3399ff; padding: 0.1cm 0.2cm; vertical-align: top; background-color: #ffffcc;" class="td_header_role_name">
                                        <span class="td_label">Document Title</span>
                                    </td>
                                    <td class="td_header_role_value">Initial Public Health Case Report</td>
                                </tr>
                                <tr>
                                    <td style="width: 20%; background-color: #3399ff; padding: 0.1cm 0.2cm; vertical-align: top; background-color: #ffffcc;" class="td_header_role_name">
                                        <span class="td_label">Document Id</span>
                                    </td>
                                    <td class="td_header_role_value">id</td>
                                </tr>
                                <tr>
                                    <td style="width: 20%; background-color: #3399ff; padding: 0.1cm 0.2cm; vertical-align: top; background-color: #ffffcc;" class="td_header_role_name">
                                        <span class="td_label">Document Created:</span>
                                    </td>
                                    <td class="td_header_role_value">November 6, 2017, 22:23, PST </td>
                                </tr>
                            </tbody>
                        </table>
                        <table style="border: 1pt inset #00008b; line-height: 10pt; width: 100%;" class="header_table">
                            <tbody>
                                <tr>
                                    <td style="width: 20%; background-color: #3399ff; padding: 0.1cm 0.2cm; vertical-align: top; background-color: #ffffcc;" class="td_header_role_name">
                                        <span class="td_label">Author</span>
                                    </td>
                                    <td class="td_header_role_value">Henry Seven, MD</td>
                                </tr>
                            </tbody>
                        </table>
                        <table style="border: 1pt inset #00008b; line-height: 10pt; width: 100%;" class="header_table">
                            <tbody>
                                <tr>
                                    <td style="width: 20%; background-color: #3399ff; padding: 0.1cm 0.2cm; vertical-align: top; background-color: #ffffcc;" class="td_header_role_name">
                                        <span class="td_label">Encounter Id</span>
                                    </td>
                                    <td class="td_header_role_value">eicr-encounter-eve-everywoman-20180401</td>
                                </tr>
                                <tr>
                                    <td style="width: 20%; background-color: #3399ff; padding: 0.1cm 0.2cm; vertical-align: top; background-color: #ffffcc;" class="td_header_role_name">
                                        <span class="td_label">Event Type</span>
                                    </td>
                                    <td class="td_header_role_value">Ambulatory, Office Visit</td>
                                </tr>
                                <tr>
                                    <td style="width: 20%; background-color: #3399ff; padding: 0.1cm 0.2cm; vertical-align: top; background-color: #ffffcc;" class="td_header_role_name">
                                        <span class="td_label">Event Date</span>
                                    </td>
                                    <td class="td_header_role_value">March 7, 2018 10:00:00 AM to Nov 7, 2015 10:15:00 AM</td>
                                </tr>
                                <tr>
                                    <td style="width: 20%; background-color: #3399ff; padding: 0.1cm 0.2cm; vertical-align: top; background-color: #ffffcc;" class="td_header_role_name">
                                        <span class="td_label">Encounter Location</span>
                                    </td>
                                    <td class="td_header_role_value">Salem Medical Center, 4646 Brown Rd, Salem, MA 02368</td>
                                </tr>
                            </tbody>
                        </table>
                    </div>
                </text>
                <status value="final"/>
                <type>
                    <coding>
                        <system value="http://loinc.org"/>
                        <code value="55751-2"/>
                        <display value="Public Health Case Report"/>
                    </coding>
                </type>
                <subject>
                    <reference value="http://hl7.org/fhir/us/ecr/Patient/patient-ecr-eve-everywoman"/>
                    <display value="Eve Everywoman"/>
                </subject>
                <encounter>
                    <reference value="Encounter/eicr-encounter-eve-everywoman-20180401"/>
                    <display value="Ambulatory Office Visit, Apr 1, 2018, 10:00am"/>
                </encounter>
                <date value="2018-01-02T22:13:23Z"/>
                <author>
                    <reference value="Practitioner/practitioner-us-core-henry-seven"/>
                    <display value="Henry Seven, MD"/>
                </author>
                <title value="Initial Public Health Case Report"/>
                <section>
                    <code>
                        <coding>
                            <system value="http://loinc.org"/>
                            <code value="46240-8"/>
                            <display value="Encounters"/>
                        </coding>
                    </code>
                    <text>
                        <status value="generated"/>
                        <div
                            xmlns="http://www.w3.org/1999/xhtml">
                            <table>
                                <thead>
                                    <tr>
                                        <th>Encounter</th>
                                        <th>Date(s)</th>
                                        <th>Location</th>
                                    </tr>
                                </thead>
                                <tbody>
                                    <tr>
                                        <td>Office outpatient visit 15 minutes</td>
                                        <td>MAR 7, 2018</td>
                                        <td>
                                            <ul>
                                                <li>Urgent Care Center</li>
                                            </ul>
                                        </td>
                                    </tr>
                                    <tr>
                                        <td colspan="20">
                                            <ul>
                                                <li>
                                                    <table>
                                                        <thead>
                                                            <tr>
                                                                <th>Encounter Diagnosis Type</th>
                                                            </tr>
                                                        </thead>
                                                        <tbody>
                                                            <tr>
                                                                <td>Diagnosis</td>
                                                            </tr>
                                                            <tr>
                                                                <td colspan="20">
                                                                    <ul>
                                                                        <li>
                                                                            <table>
                                                                                <thead>
                                                                                    <tr>
                                                                                        <th>Initial Case Report Trigger Code Problem Observation </th>
                                                                                        <th>Problem</th>
                                                                                        <th>Trigger Code</th>
                                                                                        <th>Trigger Code codeSystem</th>
                                                                                        <th>RCTC OID</th>
                                                                                        <th>RCTC Version</th>
                                                                                        <th>Date(s)</th>
                                                                                    </tr>
                                                                                </thead>
                                                                                <tbody>
                                                                                    <tr>
                                                                                        <td>Diagnosis</td>
                                                                                        <td>Pertussis (disorder)</td>
                                                                                        <td>27836007</td>
                                                                                        <td>SNOMED CT</td>
                                                                                        <td>2.16.840.1.114222.4.11.7508</td>
                                                                                        <td>19/03/2018</td>
                                                                                        <td>MAR 7, 2018</td>
                                                                                    </tr>
                                                                                </tbody>
                                                                            </table>
                                                                            <table>
                                                                                <thead>
                                                                                    <tr>
                                                                                        <th>Encounter Diagnosis Type</th>
                                                                                    </tr>
                                                                                </thead>
                                                                                <tbody>
                                                                                    <tr>
                                                                                        <td>Diagnosis</td>
                                                                                    </tr>
                                                                                    <tr>
                                                                                        <td colspan="20">
                                                                                            <ul>
                                                                                                <li>
                                                                                                    <table>
                                                                                                        <thead>
                                                                                                            <tr>
                                                                                                                <th>Problem Type</th>
                                                                                                                <th>Problem</th>
                                                                                                                <th>Date(s)</th>
                                                                                                            </tr>
                                                                                                        </thead>
                                                                                                        <tbody>
                                                                                                            <tr>
                                                                                                                <td>Diagnosis</td>
                                                                                                                <td>A non-trigger code diagnosis (disorder)</td>
                                                                                                                <td>MAR 7, 2018</td>
                                                                                                            </tr>
                                                                                                        </tbody>
                                                                                                    </table>
                                                                                                </li>
                                                                                            </ul>
                                                                                        </td>
                                                                                    </tr>
                                                                                </tbody>
                                                                            </table>
                                                                        </li>
                                                                    </ul>
                                                                </td>
                                                            </tr>
                                                        </tbody>
                                                    </table>
                                                </li>
                                            </ul>
                                        </td>
                                    </tr>
                                </tbody>
                            </table>
                        </div>
                    </text>
                </section>
                <section>
                    <code>
                        <coding>
                            <system value="http://loinc.org"/>
                            <code value="10164-2"/>
                            <display value="History of Present illness Narrative"/>
                        </coding>
                    </code>
                    <text>
                        <status value="generated"/>
                        <div
                            xmlns="http://www.w3.org/1999/xhtml">Persistent Cough REPORTED starting on 2018/03/05
                            
                            
                            <br/> Whooping Respiration not reported
                            
                            
                            <br/> Paroxysms Of
      Coughing REPORTED starting on 2018/03/06
                            
                            
                            <br/> Post-tussive vomiting not reported
                            
                            
                            <br/>
                        </div>
                    </text>
                </section>
                <section>
                    <code>
                        <coding>
                            <system value="http://loinc.org"/>
                            <code value="29299-5"/>
                            <display value="Reason for visit Narrative"/>
                        </coding>
                    </code>
                    <text>
                        <status value="generated"/>
                        <div
                            xmlns="http://www.w3.org/1999/xhtml">Bad cough
                            
                            
                            <br/>
                        </div>
                    </text>
                </section>
                <section>
                    <title value="Social History Section"/>
                    <code>
                        <coding>
                            <system value="http://loinc.org"/>
                            <code value="29762-2"/>
                            <display value="Social history Narrative"/>
                        </coding>
                    </code>
                    <text>
                        <status value="generated"/>
                        <div
                            xmlns="http://www.w3.org/1999/xhtml">
                            <table>
                                <thead>
                                    <tr>
                                        <th>Travel History: Date(s)</th>
                                        <th>Location</th>
                                    </tr>
                                </thead>
                                <tbody>
                                    <tr>
                                        <td>APR 29, 2016 to OCT 30, 2016</td>
                                        <td>Nadi, Fiji</td>
                                    </tr>
                                </tbody>
                            </table>
                            <table>
                                <thead>
                                    <tr>
                                        <th>Pregnancy Status</th>
                                        <th>Date(s)</th>
                                    </tr>
                                </thead>
                                <tbody>
                                    <tr>
                                        <td>Not Pregnant</td>
                                        <td>JAN 1, 2016 to MAR 7, 2018</td>
                                    </tr>
                                </tbody>
                            </table>
                            <table>
                                <thead>
                                    <tr>
                                        <th>Occupation</th>
                                        <th>Date(s)</th>
                                    </tr>
                                </thead>
                                <tbody>
                                    <tr>
                                        <td>Human Resource Manager</td>
                                        <td>JAN 1, 2016 to NOV 7, 2018</td>
                                    </tr>
                                </tbody>
                            </table>
                        </div>
                    </text>
                    <entry>
                        <reference value="Observation/observation-travel-history-eve-everywoman-201801"/>
                        <display value="eICR Travel History: Eve Everywoman 2018-01"/>
                    </entry>
                    <entry>
                        <reference value="Observation/observation-pregnancy-status-eve-everywoman"/>
                        <display value="eICR Pregnancy Status Example 1"/>
                    </entry>
                    <entry>
                        <reference value="Observation/observation-eicr-occupation-history-eve-everywoman"/>
                        <display value="eICR Occupation History: Eve Everywoman"/>
                    </entry>
                </section>
                <section>
                    <title value="Problems Section"/>
                    <code>
                        <coding>
                            <system value="http://loinc.org"/>
                            <code value="11450-4"/>
                            <display value="Problem list - Reported"/>
                        </coding>
                    </code>
                    <text>
                        <status value="generated"/>
                        <div
                            xmlns="http://www.w3.org/1999/xhtml">
                            <table>
                                <thead>
                                    <tr>
                                        <th>Condition</th>
                                        <th>id</th>
                                        <th>Trigger Condition</th>
                                        <th>Condition Category</th>
                                        <th>Condition Code/Code System</th>
                                        <th>Date(s)</th>
                                        <th>Asserter</th>
                                    </tr>
                                </thead>
                                <tbody>
                                    <tr>
                                        <td>Common cold (disorder)</td>
                                        <td>16</td>
                                        <td>FALSE</td>
                                        <td>Encounter Diagnosis</td>
                                        <td>82272006 / SNOMED CT</td>
                                        <td>MAR 6, 2018</td>
                                        <td>Henry Seven, MD</td>
                                    </tr>
                                </tbody>
                            </table>
                        </div>
                    </text>
                    <entry>
                        <reference value="Condition/condition-eicr-eve-everywoman-common-cold"/>
                        <display value="Common cold (disorder)"/>
                    </entry>
                </section>
                <section>
                    <title value="Medications Administered Section"/>
                    <code>
                        <coding>
                            <system value="http://loinc.org"/>
                            <code value="29549-3"/>
                            <display value="Medication administered Narrative"/>
                        </coding>
                    </code>
                    <text>
                        <status value="generated"/>
                        <div
                            xmlns="http://www.w3.org/1999/xhtml">
                            <table>
                                <thead>
                                    <tr>
                                        <th>id</th>
                                        <th>Medication</th>
                                        <th>Dose</th>
                                        <th>Duration</th>
                                        <th>Route</th>
                                    </tr>
                                </thead>
                                <tbody>
                                    <tr>
                                        <td>MedicationStatement-us-core-medicationstatement-eve-everywoman-azithromycin</td>
                                        <td>Azithromycin 500 MG Oral Tablet</td>
                                        <td>1 TAB</td>
                                        <td>MAR 7, 2018 11:25</td>
                                        <td>ORALLY</td>
                                    </tr>
                                </tbody>
                            </table>
                        </div>
                    </text>
                    <entry>
                        <reference value="MedicationStatement/medicationstatement-us-core-eve-everywoman-azithromycin"/>
                        <display value="Azithromycin 500 MG Oral Tablet"/>
                    </entry>
                </section>
                <section>
                    <title value="Results Section"/>
                    <code>
                        <coding>
                            <system value="http://loinc.org"/>
                            <code value="30954-2"/>
                            <display value="Relevant diagnostic tests/​laboratory data Narrative"/>
                        </coding>
                    </code>
                    <text>
                        <status value="generated"/>
                        <div
                            xmlns="http://www.w3.org/1999/xhtml">
                            <p>
                                <b>Generated Narrative with Details</b>
                            </p>
                            <p>
                                <b>id</b>: us-core-observation-results-eve-everywoman-lymphocytes
                            
                            
                            </p>
                            <p>
                                <b>meta</b>: 
                            
                            
                            </p>
                            <p>
                                <b>status</b>: final
                            
                            
                            </p>
                            <p>
                                <b>category</b>: Laboratory 
                                
                                
                                <span style="background: LightGoldenRodYellow">(Details : {http://hl7.org/fhir/observation-category code 'laboratory' = 'Laboratory', given as 'Laboratory'})</span>
                            </p>
                            <p>
                                <b>code</b>: Lymphocytes [#/​volume] in Blood by Automated count 
                                
                                
                                <span style="background: LightGoldenRodYellow">(Details : {LOINC code '731-0' = 'Lymphocytes [#/​volume] in Blood by Automated count'})</span>
                            </p>
                            <p>
                                <b>trigger result</b>: FALSE
                            
                            
                            </p>
                            <p>
                                <b>effective</b>: Mar 6, 2018
                            
                            
                            </p>
                            <p>
                                <b>value</b>: 5.2 10*3/uL
                                
                                
                                <span style="background: LightGoldenRodYellow"> (Details: UCUM code 10*3/uL')</span>
                            </p>
                            <p>
                                <b>interpretation</b>: High
                                
                                
                                <span style="background: LightGoldenRodYellow"> (Details: http://hl7.org/fhir/v2/0078 code 'H' = 'High')</span>
                            </p>
                            <h3>ReferenceRanges</h3>
                            <table class="grid">
                                <tr>
                                    <td>-</td>
                                    <td>
                                        <b>Low</b>
                                        <b>High</b>
                                    </td>
                                </tr>
                                <tr>
                                    <td>*</td>
                                    <td>1.0 10*3/uL
                                        
                                        
                                        <span style="background: LightGoldenRodYellow"> (Details: UCUM code 10*3/uL')</span>
                                    </td>
                                    <td>4.8 10*3/uL
                                        
                                        
                                        <span style="background: LightGoldenRodYellow"> (Details: UCUM code 10*3/uL')</span>
                                    </td>
                                </tr>
                            </table>
                        </div>
                    </text>
                    <entry>
                        <reference value="Observation/observation-us-core-results-eve-everywoman-lymphocytes"/>
                        <display value="Lymphocytes [#/​volume] in Blood by Automated count - Interpretation: High"/>
                    </entry>
                </section>
                <section>
                    <title value="Plan of Treatment Section"/>
                    <code>
                        <coding>
                            <system value="http://loinc.org"/>
                            <code value="18776-5"/>
                            <display value="Plan of Treatment"/>
                        </coding>
                    </code>
                    <text>
                        <status value="generated"/>
                        <div
                            xmlns="http://www.w3.org/1999/xhtml">
                            <p>
                                <b>id</b>: 5
                            
                            
                            </p>
                            <p>
                                <b>status</b>: completed
                            
                            
                            </p>
                            <p>
                                <b>intent</b>: order
                            
                            
                            </p>
                            <p>
                                <b>priority</b>: asap
                            
                            
                            </p>
                            <p>
                                <b>category</b>: Diagnostics Procedure 
                                
                                
                                <span style="background: LightGoldenRodYellow">(Details : {SNOMED CT code '103693007' = 'Diagnostic procedure', given as 'Diagnostic procedure (procedure)'})</span>
                            </p>
                            <p>
                                <b>code</b>: Zika RT-PCR 
                                
                                
                                <span style="background: LightGoldenRodYellow">(Details : {LOINC code '80825-3' = 'Zika virus envelope (E) gene [Presence] in Serum by Probe and target amplification method', given as 'Zika virus envelope (E) gene [Presence] in Serum by Probe and target amplification method'})</span>
                            </p>
                            <p>
                                <b>trigger lab order</b>: TRUE
                            
                            
                            </p>
                            <p>
                                <b>trigger value set/version</b>: urn:oid:2.16.840.1.114222.4.11.7508 / 19/05/2018
                            
                            
                            </p>
                            <p>
                                <b>performer</b>: 
                                
                              
                                <a href="Organization/organization-ecr-acme-laboratory">Acme Labs</a>
                            </p>
                        </div>
                    </text>
                    <entry>
                        <extension url="http://hl7.org/fhir/us/ecr/StructureDefinition/eicr-trigger-code-flag-extension">
                            <extension url="triggerCodeValueSet">
                                <valueOid value="urn:oid:2.16.840.1.114222.4.11.7508"/>
                            </extension>
                            <extension url="triggerCodeValueSetVersion">
                                <valueString value="19/05/2018"/>
                            </extension>
                        </extension>
                        <reference value="ServiceRequest/servicerequest-eicr-zika"/>
                        <display value="Request for Zika virus envelope (E) gene [Presence] in Serum by Probe and target amplification method"/>
                    </entry>
                </section>
            </Composition>
        </resource>
    </entry>
    <entry>
        <fullUrl value="http://hl7.org/fhir/us/ecr/Patient/patient-ecr-eve-everywoman"/>
        <resource>
            <Patient>
                <id value="patient-ecr-eve-everywoman"/>
                <text>
                    <status value="generated"/>
                    <div
                        xmlns="http://www.w3.org/1999/xhtml">
                        <div class="hapiHeaderText">Eve L 
                            
                            
                            <b>EVERYWOMAN </b>
                        </div>
                        <table class="hapiPropertyTable">
                            <tbody>
                                <tr>
                                    <td>Identifier</td>
                                    <td>1032702</td>
                                </tr>
                                <tr>
                                    <td>Address</td>
                                    <td>
                                        <span>5101 Peachtree St NE </span>
                                        <br/>
                                        <span>Atlanta </span>
                                        <span>GA </span>
                                        <span>US </span>
                                    </td>
                                </tr>
                                <tr>
                                    <td>Date of birth</td>
                                    <td>
                                        <span>24 November 1974</span>
                                    </td>
                                </tr>
                            </tbody>
                        </table>
                    </div>
                </text>
                <extension url="http://hl7.org/fhir/us/core/StructureDefinition/us-core-race">
                    <extension url="ombCategory">
                        <valueCoding>
                            <system value="urn:oid:2.16.840.1.113883.6.238"/>
                            <code value="2106-3"/>
                            <display value="White"/>
                        </valueCoding>
                    </extension>
                    <extension url="text">
                        <valueString value="White"/>
                    </extension>
                </extension>
                <extension url="http://hl7.org/fhir/us/core/StructureDefinition/us-core-ethnicity">
                    <extension url="ombCategory">
                        <valueCoding>
                            <system value="urn:oid:2.16.840.1.113883.6.238"/>
                            <code value="2186-5"/>
                            <display value="Not Hispanic or Latino"/>
                        </valueCoding>
                    </extension>
                    <extension url="text">
                        <valueString value="Not Hispanic or Latino"/>
                    </extension>
                </extension>
                <extension url="http://hl7.org/fhir/us/core/StructureDefinition/us-core-birthsex">
                    <valueCode value="F"/>
                </extension>
                <identifier>
                    <use value="usual"/>
                    <type>
                        <coding>
                            <system value="http://terminology.hl7.org/CodeSystem/v2-0203"/>
                            <code value="MR"/>
                            <display value="Medical Record Number"/>
                        </coding>
                        <text value="Medical Record Number"/>
                    </type>
                    <system value="http://hospital.smarthealthit.org"/>
                    <value value="1032702"/>
                </identifier>
                <identifier>
                    <use value="usual"/>
                    <type>
                        <coding>
                            <system value="http://terminology.hl7.org/CodeSystem/v2-0203"/>
                            <code value="SB"/>
                            <display value="Social Beneficiary Identifier"/>
                        </coding>
                        <text value="SSN"/>
                    </type>
                    <system value="http://hl7.org/fhir/sid/us-ssn"/>
                    <value value="11-00-1234"/>
                </identifier>
                <active value="true"/>
                <name>
                    <family value="Everywoman"/>
                    <given value="Eve"/>
                    <given value="L"/>
                </name>
                <telecom>
                    <system value="phone"/>
                    <value value="1-(404)555-1212"/>
                    <use value="home"/>
                </telecom>
                <telecom>
                    <system value="email"/>
                    <value value="eve.everywoman@example.com"/>
                </telecom>
                <gender value="female"/>
                <birthDate value="1974-11-24"/>
                <address>
                    <line value="5101 Peachtree St NE"/>
                    <city value="Atlanta"/>
                    <state value="GA"/>
                    <postalCode value="30302"/>
                    <country value="US"/>
                </address>
            </Patient>
        </resource>
    </entry>
    <entry>
        <fullUrl value="http://hl7.org/fhir/us/ecr/Encounter/encounter-eicr-diagnosis-eve-everywoman-20180401"/>
        <resource>
            <Encounter>
                <id value="encounter-eicr-diagnosis-eve-everywoman-20180401"/>
                <text>
                    <status value="generated"/>
                    <div
                        xmlns="http://www.w3.org/1999/xhtml">
                        <p>
                            <b>Generated Narrative with Details</b>
                        </p>
                        <p>
                            <b>id</b>: encounter-eicr-diagnosis-eve-everywoman-20180401
                        
                        
                        </p>
                        <p>
                            <b>meta</b>: 
                        
                        
                        </p>
                        <p>
                            <b>status</b>: generated
                        
                        
                        </p>
                        <p>
                            <b>class</b>: ambulatory (Details: http://terminology.hl7.org/CodeSystem/v3-ActCode code AMB = 'ambulatory', stated as 'ambulatory')
                        
                        
                        </p>
                        <p>
                            <b>type</b>: Office Visit 
              
                            
                            
                            <span style="background: LightGoldenRodYellow">(Details : {http://www.ama-assn.org/go/cpt code '99201' = '99201)</span>
                        </p>
                        <p>
                            <b>subject</b>: 
              
                            
                            
                            <b>name</b>: Eve Everywoman 
              
                            
                            
                            <b>identifier</b>: Medical Record Number = 1032702 (http://hospital.smarthealthit.org), SSN = 11-00-1234 (USUAL)
                        
                        
                        </p>
                        <p>
                            <b>period</b>: Apr 1, 2018 10:00:00 AM --&gt; Apr 2, 2018 10:15:00 AM
                        
                        
                        </p>
                    </div>
                </text>
                <identifier>
                    <system value="http://hospital.smarthealthit.org"/>
                    <value value="9937012"/>
                </identifier>
                <status value="finished"/>
                <class>
                    <system value="http://terminology.hl7.org/CodeSystem/v3-ActCode"/>
                    <code value="AMB"/>
                    <display value="ambulatory"/>
                </class>
                <type>
                    <coding>
                        <system value="http://www.ama-assn.org/go/cpt"/>
                        <code value="99201"/>
                    </coding>
                    <text value="Office Visit"/>
                </type>
                <subject>
                    <reference value="Patient/patient-ecr-eve-everywoman"/>
                    <display value="Eve Everywoman"/>
                </subject>
                <participant>
                    <type>
                        <coding>
                            <system value="http://terminology.hl7.org/CodeSystem/v3-ParticipationType"/>
                            <code value="ATND"/>
                            <display value="attender"/>
                        </coding>
                    </type>
                    <individual>
                        <reference value="Practitioner/ecr-practitioner-henry-seven"/>
                        <display value="Henry Seven, MD"/>
                    </individual>
                </participant>
                <period>
                    <start value="2018-04-01T10:00:00-05:00"/>
                    <end value="2018-04-02T10:15:00-05:00"/>
                </period>
                <location>
                    <location>
                        <reference value="Location/location-ecr-salem-medical-center"/>
                        <display value="Clinic Bldg A, Salem Medical Center, 4646 Brown Rd, Salem, MA 02368"/>
                    </location>
                </location>
                <serviceProvider>
                    <reference value="Organization/ecr-organization-salem-medical-center"/>
                    <display value="Salem Medical Center, 22222 Health Authority Drive, Ann Arbor MI, 99999"/>
                </serviceProvider>
            </Encounter>
        </resource>
    </entry>
    <entry>
        <fullUrl value="http://hl7.org/fhir/us/ecr/Practitioner/ecr-practitioner-henry-seven"/>
        <resource>
            <Practitioner>
                <id value="ecr-practitioner-henry-seven"/>
                <identifier>
                    <system value="http://hl7.org.fhir/sid/us-npi"/>
                    <value value="1521001101"/>
                </identifier>
                <name>
                    <family value="Henry"/>
                    <given value="Seven"/>
                    <suffix value="M.D."/>
                </name>
                <address>
                    <text value="BMass Doctors"/>
                    <line value="BMass Doctors"/>
                    <line value="2100 North Ave"/>
                    <city value="Burlington"/>
                    <state value="MA"/>
                    <postalCode value="02368"/>
                    <country value="US"/>
                </address>
            </Practitioner>
        </resource>
    </entry>
</Bundle>