<?xml version="1.0" encoding="UTF-8"?>
<Bundle
    xmlns="http://hl7.org/fhir">
    <id value="bundle-ecr-message-zika"/>
    <meta>
        <versionId value="13"/>
        <lastUpdated value="2021-08-13T05:08:12.331+00:00"/>
        <source value="#abfmYa4NbkAgdmy4"/>
        <profile value="http://hl7.org/fhir/us/ecr/StructureDefinition/ecr-message-bundle"/>
    </meta>
    <identifier>
        <system value="urn:ietf:rfc:3986"/>
        <value value="urn:uuid:0c3eec0b-145b-4694-a1b8-1ea4de5a0cb0"/>
    </identifier>
    <type value="message"/>
    <entry>
        <fullUrl value="http://example.org/fhir/MessageHeader/messageheader-ecr-requested-eicr"/>
        <resource>
            <MessageHeader>
                <id value="messageheader-ecr-requested-eicr"/>
                <extension url="http://hl7.org/fhir/us/ecr/StructureDefinition/us-ph-message-processing-category-extension">
                    <valueCode value="consequence"/>
                </extension>
                <eventCoding>
                    <system value="http://hl7.org/fhir/us/ecr/CodeSystem/us-ph-message-types-codesystem"/>
                    <code value="eicr-case-report-message"/>
                    <display value="Indicates a message containing electronic case report healthcare data sent from clinical care."/>
                </eventCoding>
                <destination>
                    <name value="YMCA Acme Message Gateway"/>
                    <target>
                        <reference value="Device/device-ecr-software-ymca"/>
                    </target>
                    <endpoint value="http://example.org/ymca/fhir"/>
                </destination>
                <sender>
                    <reference value="Organization/organization-ecr-salem-medical-center"/>
                </sender>
                <source>
                    <name value="Acme Central Patient Registry"/>
                    <software value="FooBar Patient Manager"/>
                    <version value="3.1.45.AABB"/>
                    <contact>
                        <system value="phone"/>
                        <value value="+1 (555) 123 4567"/>
                    </contact>
                    <endpoint value="http://example.org/salem-medical-center/fhir"/>
                </source>
                <reason>
                    <coding>
                        <system value="http://hl7.org/fhir/us/ecr/CodeSystem/us-ph-triggerdefinition-namedevents"/>
                        <code value="encounter-close"/>
                        <display value="Indicates the closure of an encounter, where in encounter.period.high is populated with the end time."/>
                    </coding>
                </reason>
                <focus>
                    <reference value="Bundle/bundle-eicr-document-zika"/>
                </focus>
            </MessageHeader>
        </resource>
    </entry>
    <entry>
        <fullUrl value="http://example.org/fhir/Device/device-ecr-software-ymca"/>
        <resource>
            <Device>
                <id value="device-ecr-software-ymca"/>
                <text>
                    <status value="generated"/>
                    <div
                        xmlns="http://www.w3.org/1999/xhtml">
                        <table
                            xmlns:xsl="http://www.w3.org/1999/XSL/Transform">
                            <tr>
                                <td style="font-weight: bold">id:
                </td>
                                <td>
                                    <div title="id">device-ecr-software-ymca</div>
                                </td>
                            </tr>
                            <tr>
                                <td style="font-weight: bold">meta:
                </td>
                                <td>
                                    <ul style="list-style:none; padding-left:0; margin:0 0;">
                                        <li>
                                            <div title="versionId">4</div>
                                        </li>
                                        <li>
                                            <div title="lastUpdated">2019-10-03T05:07:48.000-04:00</div>
                                        </li>
                                    </ul>
                                </td>
                            </tr>
                            <tr>
                                <td style="font-weight: bold">identifier:
                </td>
                                <td>
                                    <ul style="list-style:none; padding-left:0; margin:0 0;">
                                        <li>
                                            <div title="system">
                                                <a href="http://acme.com/software/client-ids">http://acme.com/software/client-ids</a>
                                            </div>
                                        </li>
                                        <li>
                                            <div title="value">goodhealth_id</div>
                                        </li>
                                    </ul>
                                </td>
                            </tr>
                            <tr>
                                <td style="font-weight: bold">manufacturer:
                </td>
                                <td>
                                    <div title="manufacturer">Acme Devices, Inc</div>
                                </td>
                            </tr>
                            <tr>
                                <td style="font-weight: bold">type:
                </td>
                                <td>
                                    <div title="text">EHR</div>
                                </td>
                            </tr>
                            <tr>
                                <td style="font-weight: bold">version:
                </td>
                                <td>
                                    <table>
                                        <tr>
                                            <td style="font-weight: bold">value:
                      </td>
                                            <td>
                                                <div title="value">10.23-23423</div>
                                            </td>
                                        </tr>
                                    </table>
                                </td>
                            </tr>
                            <tr>
                                <td style="font-weight: bold">contact:
                </td>
                                <td>
                                    <ul style="list-style:none; padding-left:0; margin:0 0;">
                                        <li>
                                            <div title="system">url</div>
                                        </li>
                                        <li>
                                            <div title="value">http://acme.com</div>
                                        </li>
                                    </ul>
                                </td>
                            </tr>
                            <tr>
                                <td style="font-weight: bold">url:
                </td>
                                <td>
                                    <div title="url">http://acme.com/ymca/software/</div>
                                </td>
                            </tr>
                        </table>
                    </div>
                </text>
                <identifier>
                    <system value="http://acme.com/software/client-ids"/>
                    <value value="goodhealth_id"/>
                </identifier>
                <manufacturer value="Acme Devices, Inc"/>
                <type>
                    <text value="EHR"/>
                </type>
                <version>
                    <value value="10.23-23423"/>
                </version>
                <contact>
                    <system value="url"/>
                    <value value="http://acme.com"/>
                </contact>
                <url value="http://acme.com/ymca/software/"/>
            </Device>
        </resource>
    </entry>
    <entry>
        <fullUrl value="http://example.org/fhir/Organization/organization-ecr-salem-medical-center"/>
        <resource>
            <Organization>
                <id value="organization-ecr-salem-medical-center"/>
                <text>
                    <status value="generated"/>
                    <div
                        xmlns="http://www.w3.org/1999/xhtml">
                        <table
                            xmlns:xsl="http://www.w3.org/1999/XSL/Transform">
                            <tr>
                                <td style="font-weight: bold">id</td>
                                <td>
                                    <div title="id">organization-ecr-salem-medical-center</div>
                                </td>
                            </tr>
                            <tr>
                                <td style="font-weight: bold">meta</td>
                                <td>
                                    <table>
                                        <tr>
                                            <td style="font-weight: bold">versionId</td>
                                            <td>
                                                <div title="versionId">16</div>
                                            </td>
                                        </tr>
                                        <tr>
                                            <td style="font-weight: bold">lastUpdated</td>
                                            <td>
                                                <div title="lastUpdated">2019-10-05T03:15:41.000-04:00</div>
                                            </td>
                                        </tr>
                                        <tr>
                                            <td style="font-weight: bold">profile</td>
                                            <td>
                                                <div title="profile">http://hl7.org/fhir/us/ecr/StructureDefinition/us-ph-organization</div>
                                            </td>
                                        </tr>
                                    </table>
                                </td>
                            </tr>
                            <tr>
                                <td style="font-weight: bold">identifier</td>
                                <td>
                                    <ul style="list-style:none; padding-left:0; margin:0 0;">
                                        <li>
                                            <div title="system">
                                                <a href="http://hl7.org.fhir/sid/us-npi">http://hl7.org.fhir/sid/us-npi</a>
                                            </div>
                                        </li>
                                        <li>
                                            <div title="value">55555555</div>
                                        </li>
                                    </ul>
                                </td>
                            </tr>
                            <tr>
                                <td style="font-weight: bold">active</td>
                                <td>
                                    <div title="active">true</div>
                                </td>
                            </tr>
                            <tr>
                                <td style="font-weight: bold">type</td>
                                <td>
                                    <ul style="list-style:none; padding-left:0; margin:0 0;">
                                        <li>
                                            <ul style="list-style:none; padding-left:0; margin:0 0;">
                                                <li>
                                                    <div title="display">Outpatient facility</div>  (
                                                    
                                                    
                                                    
                                                    
                                                    
                                                    
                                                    
                                                    <div title="code">OF</div> )
                        
                                                
                                                
                                                
                                                
                                                
                                                
                                                
                                                </li>
                                                <li>
                                                    <div title="system">
                                                        <a href="http://terminology.hl7.org/CodeSystem/v3-RoleCode">http://terminology.hl7.org/CodeSystem/v3-RoleCode</a>
                                                    </div>
                                                </li>
                                            </ul>
                                        </li>
                                    </ul>
                                </td>
                            </tr>
                            <tr>
                                <td style="font-weight: bold">name</td>
                                <td>
                                    <div title="name">Salem Medical Center</div>
                                </td>
                            </tr>
                            <tr>
                                <td style="font-weight: bold">telecom</td>
                                <td>
                                    <table>
                                        <tr>
                                            <td style="font-weight: bold">system</td>
                                            <td>
                                                <div title="system">phone</div>
                                            </td>
                                        </tr>
                                        <tr>
                                            <td style="font-weight: bold">value</td>
                                            <td>
                                                <div title="value">+1-555-555-1111</div>
                                            </td>
                                        </tr>
                                    </table>
                                </td>
                            </tr>
                            <tr>
                                <td style="font-weight: bold">telecom</td>
                                <td>
                                    <table>
                                        <tr>
                                            <td style="font-weight: bold">system</td>
                                            <td>
                                                <div title="system">email</div>
                                            </td>
                                        </tr>
                                        <tr>
                                            <td style="font-weight: bold">value</td>
                                            <td>
                                                <div title="value">mail@salemmedicalcenter.com</div>
                                            </td>
                                        </tr>
                                    </table>
                                </td>
                            </tr>
                            <tr>
                                <td style="font-weight: bold">address</td>
                                <td>
                                    <table>
                                        <tr>
                                            <td style="font-weight: bold">line</td>
                                            <td>
                                                <div title="line">22222 Health Authority Drive</div>
                                            </td>
                                        </tr>
                                        <tr>
                                            <td style="font-weight: bold">city</td>
                                            <td>
                                                <div title="city">Ann Arbor</div>
                                            </td>
                                        </tr>
                                        <tr>
                                            <td style="font-weight: bold">state</td>
                                            <td>
                                                <div title="state">MI</div>
                                            </td>
                                        </tr>
                                        <tr>
                                            <td style="font-weight: bold">postalCode</td>
                                            <td>
                                                <div title="postalCode">99999</div>
                                            </td>
                                        </tr>
                                    </table>
                                </td>
                            </tr>
                        </table>
                    </div>
                </text>
                <identifier>
                    <system value="http://hl7.org.fhir/sid/us-npi"/>
                    <value value="55555555"/>
                </identifier>
                <active value="true"/>
                <type>
                    <coding>
                        <system value="http://terminology.hl7.org/CodeSystem/v3-RoleCode"/>
                        <code value="OF"/>
                        <display value="Outpatient facility"/>
                    </coding>
                </type>
                <name value="Salem Medical Center"/>
                <telecom>
                    <system value="phone"/>
                    <value value="+1-555-555-1111"/>
                </telecom>
                <telecom>
                    <system value="email"/>
                    <value value="mail@salemmedicalcenter.com"/>
                </telecom>
                <address>
                    <line value="22222 Health Authority Drive"/>
                    <city value="Ann Arbor"/>
                    <state value="MI"/>
                    <postalCode value="99999"/>
                </address>
            </Organization>
        </resource>
    </entry>
    <entry>
        <fullUrl value="http://example.org/fhir/Organization/organization-ecr-ymca-center"/>
        <resource>
            <Organization>
                <id value="organization-ecr-ymca-center"/>
                <text>
                    <status value="generated"/>
                    <div
                        xmlns="http://www.w3.org/1999/xhtml">
                        <table
                            xmlns:xsl="http://www.w3.org/1999/XSL/Transform">
                            <tr>
                                <td style="font-weight: bold">id</td>
                                <td>
                                    <div title="id">organization-ecr-ymca-center</div>
                                </td>
                            </tr>
                            <tr>
                                <td style="font-weight: bold">meta</td>
                                <td>
                                    <table>
                                        <tr>
                                            <td style="font-weight: bold">versionId</td>
                                            <td>
                                                <div title="versionId">9</div>
                                            </td>
                                        </tr>
                                        <tr>
                                            <td style="font-weight: bold">lastUpdated</td>
                                            <td>
                                                <div title="lastUpdated">2019-10-23T13:56:36.000-04:00</div>
                                            </td>
                                        </tr>
                                        <tr>
                                            <td style="font-weight: bold">profile</td>
                                            <td>
                                                <div title="profile">http://hl7.org/fhir/us/ecr/StructureDefinition/us-ph-organization</div>
                                            </td>
                                        </tr>
                                    </table>
                                </td>
                            </tr>
                            <tr>
                                <td style="font-weight: bold">identifier</td>
                                <td>
                                    <ul style="list-style:none; padding-left:0; margin:0 0;">
                                        <li>
                                            <div title="system">
                                                <a href="http://hl7.org.fhir/sid/us-npi">http://hl7.org.fhir/sid/us-npi</a>
                                            </div>
                                        </li>
                                        <li>
                                            <div title="value">7777788</div>
                                        </li>
                                    </ul>
                                </td>
                            </tr>
                            <tr>
                                <td style="font-weight: bold">active</td>
                                <td>
                                    <div title="active">true</div>
                                </td>
                            </tr>
                            <tr>
                                <td style="font-weight: bold">type</td>
                                <td>
                                    <ul style="list-style:none; padding-left:0; margin:0 0;">
                                        <li>
                                            <ul style="list-style:none; padding-left:0; margin:0 0;">
                                                <li>
                                                    <div title="display">Outpatient facility</div>  (
                                                    
                                                    
                                                    
                                                    
                                                    
                                                    
                                                    
                                                    <div title="code">OF</div> )
                        
                                                
                                                
                                                
                                                
                                                
                                                
                                                
                                                </li>
                                                <li>
                                                    <div title="system">
                                                        <a href="http://terminology.hl7.org/CodeSystem/v3-RoleCode">http://terminology.hl7.org/CodeSystem/v3-RoleCode</a>
                                                    </div>
                                                </li>
                                            </ul>
                                        </li>
                                    </ul>
                                </td>
                            </tr>
                            <tr>
                                <td style="font-weight: bold">name</td>
                                <td>
                                    <div title="name">YMCA</div>
                                </td>
                            </tr>
                            <tr>
                                <td style="font-weight: bold">telecom</td>
                                <td>
                                    <table>
                                        <tr>
                                            <td style="font-weight: bold">system</td>
                                            <td>
                                                <div title="system">phone</div>
                                            </td>
                                        </tr>
                                        <tr>
                                            <td style="font-weight: bold">value</td>
                                            <td>
                                                <div title="value">+1-555-555-7777</div>
                                            </td>
                                        </tr>
                                    </table>
                                </td>
                            </tr>
                            <tr>
                                <td style="font-weight: bold">telecom</td>
                                <td>
                                    <table>
                                        <tr>
                                            <td style="font-weight: bold">system</td>
                                            <td>
                                                <div title="system">email</div>
                                            </td>
                                        </tr>
                                        <tr>
                                            <td style="font-weight: bold">value</td>
                                            <td>
                                                <div title="value">mail@ymca.com</div>
                                            </td>
                                        </tr>
                                    </table>
                                </td>
                            </tr>
                            <tr>
                                <td style="font-weight: bold">address</td>
                                <td>
                                    <table>
                                        <tr>
                                            <td style="font-weight: bold">line</td>
                                            <td>
                                                <div title="line">22222 Health Authority Drive</div>
                                            </td>
                                        </tr>
                                        <tr>
                                            <td style="font-weight: bold">city</td>
                                            <td>
                                                <div title="city">Ann Arbor</div>
                                            </td>
                                        </tr>
                                        <tr>
                                            <td style="font-weight: bold">state</td>
                                            <td>
                                                <div title="state">MI</div>
                                            </td>
                                        </tr>
                                        <tr>
                                            <td style="font-weight: bold">postalCode</td>
                                            <td>
                                                <div title="postalCode">99999</div>
                                            </td>
                                        </tr>
                                    </table>
                                </td>
                            </tr>
                            <tr>
                                <td style="font-weight: bold">endpoint</td>
                                <td>
                                    <ul style="list-style:none; padding-left:0; margin:0 0;">
                                        <li>
                                            <a href="Endpoint-endpoint-ecr-ymca.html">Endpoint/endpoint-ecr-ymca</a>
                                        </li>
                                    </ul>
                                </td>
                            </tr>
                        </table>
                    </div>
                </text>
                <identifier>
                    <system value="http://hl7.org.fhir/sid/us-npi"/>
                    <value value="7777788"/>
                </identifier>
                <active value="true"/>
                <type>
                    <coding>
                        <system value="http://terminology.hl7.org/CodeSystem/v3-RoleCode"/>
                        <code value="OF"/>
                        <display value="Outpatient facility"/>
                    </coding>
                </type>
                <name value="YMCA"/>
                <telecom>
                    <system value="phone"/>
                    <value value="+1-555-555-7777"/>
                </telecom>
                <telecom>
                    <system value="email"/>
                    <value value="mail@ymca.com"/>
                </telecom>
                <address>
                    <line value="22222 Health Authority Drive"/>
                    <city value="Ann Arbor"/>
                    <state value="MI"/>
                    <postalCode value="99999"/>
                </address>
                <endpoint>
                    <reference value="Endpoint/endpoint-ecr-ymca"/>
                </endpoint>
            </Organization>
        </resource>
    </entry>
</Bundle>