<Bundle xmlns="http://hl7.org/fhir">
    <id value="bundle-eicr-document-zika" />
    <meta>
        <profile value="http://hl7.org/fhir/us/ecr/StructureDefinition/eicr-document-bundle" />
    </meta>
    <identifier>
        <system value="urn:ietf:rfc:3986" />
        <value value="urn:uuid:2be4b4e4-6df1-4cb2-a947-c70fa0eda54b" />
    </identifier>
    <type value="document" />
    <timestamp value="2021-08-02T22:13:23Z" />
    <entry>
        <fullUrl value="http://example.org/fhir/Composition/composition-eicr-zika" />
        <resource>
            <Composition>
                <id value="composition-eicr-zika" />
                <meta>
                    <versionId value="22" />
                    <lastUpdated value="2021-08-17T03:24:45.575+00:00" />
                    <source value="#vMaRLlyzDNjGkVuc" />
                    <profile value="http://hl7.org/fhir/us/ecr/StructureDefinition/eicr-composition" />
                </meta>
                <extension url="http://hl7.org/fhir/StructureDefinition/composition-clinicaldocument-versionNumber">
                    <valueString value="1" />
                </extension>
                <identifier>
                    <value value="c03eab8c-11e8-4d0c-ad2a-b385395e27db" />
                </identifier>
                <status value="final" />
                <type>
                    <coding>
                        <system value="http://loinc.org" />
                        <code value="55751-2" />
                        <display value="Public Health Case Report" />
                    </coding>
                </type>
                <subject>
                    <reference value="Patient/patient-ecr-eve-everywoman" />
                    <display value="Eve Everywoman" />
                </subject>
                <encounter>
                    <reference value="Encounter/encounter-eicr-eve-everywoman-outpatient" />
                    <display value="Ambulatory Office Visit" />
                </encounter>
                <date value="2018-01-02T22:13:23Z" />
                <author>
                    <reference value="PractitionerRole/practitionerrole-henry-seven" />
                    <display value="Henry Seven, MD" />
                </author>
                <title value="Initial Public Health Case Report - Zika Example" />
                <custodian>
                    <reference value="Organization/organization-ecr-salem-medical-center" />
                    <display value="Salem Medical Center" />
                </custodian>
                <section>
                    <title value="Reason for Visit Section" />
                    <code>
                        <coding>
                            <system value="http://loinc.org" />
                            <code value="29299-5" />
                            <display value="Reason for visit Narrative" />
                        </coding>
                    </code>
                    <text>
                        <status value="generated" />
                        <div xmlns="http://www.w3.org/1999/xhtml">
                            <table>
                                <tr>
                                    <td style="font-weight: bold">title</td>
                                    <td>
                                        <div title="title">Reason for Visit Section</div>
                                    </td>
                                </tr>
                                <tr>
                                    <td style="font-weight: bold">code</td>
                                    <td>
                                        <ul style="list-style:none; padding-left:0; margin:0 0;">
                                            <li>
                                                <ul style="list-style:none; padding-left:0; margin:0 0;">
                                                    <li>
                                                        <div title="display">Reason for visit Narrative</div> ( <div title="code">29299-5</div> ) </li>
                                                    <li>
                                                        <div title="system">
                                                            <a href="http://loinc.org">http://loinc.org</a>
                                                        </div>
                                                    </li>
                                                </ul>
                                            </li>
                                        </ul>
                                    </td>
                                </tr>
                                <tr>
                                    <td class="text-no-entries" colspan="2" lang="en-US">
                                        <p>Reason for Visit: Bad cough</p>
                                    </td>
                                </tr>
                            </table>
                        </div>
                    </text>
                </section>
                <section>
                    <title value="Chief Complaint" />
                    <code>
                        <coding>
                            <system value="http://loinc.org" />
                            <code value="10154-3" />
                            <display value="Chief complaint Narrative - Reported" />
                        </coding>
                    </code>
                    <text>
                        <status value="generated" />
                        <div xmlns="http://www.w3.org/1999/xhtml">
                            <table>
                                <tr>
                                    <td style="font-weight: bold">title</td>
                                    <td>
                                        <div title="title">Chief complaint Narrative - Reported</div>
                                    </td>
                                </tr>
                                <tr>
                                    <td style="font-weight: bold">code</td>
                                    <td>
                                        <ul style="list-style:none; padding-left:0; margin:0 0;">
                                            <li>
                                                <ul style="list-style:none; padding-left:0; margin:0 0;">
                                                    <li>
                                                        <div title="display">Chief complaint Narrative - Reported</div> ( <div title="code">10154-3</div> ) </li>
                                                    <li>
                                                        <div title="system">
                                                            <a href="http://loinc.org">http://loinc.org</a>
                                                        </div>
                                                    </li>
                                                </ul>
                                            </li>
                                        </ul>
                                    </td>
                                </tr>
                                <tr>
                                    <td class="text-no-entries" colspan="2" lang="en-US">
                                        <p>Chief Complaint: Bad cough</p>
                                    </td>
                                </tr>
                            </table>
                        </div>
                    </text>
                </section>
                <section>
                    <title value="History of Present Illness Section" />
                    <code>
                        <coding>
                            <system value="http://loinc.org" />
                            <code value="10164-2" />
                            <display value="History of Present illness Narrative" />
                        </coding>
                    </code>
                    <text>
                        <status value="generated" />
                        <div xmlns="http://www.w3.org/1999/xhtml">
                            <table>
                                <tr>
                                    <td style="font-weight: bold">title</td>
                                    <td>
                                        <div title="title">History of Present Illness Section</div>
                                    </td>
                                </tr>
                                <tr>
                                    <td style="font-weight: bold">code</td>
                                    <td>
                                        <ul style="list-style:none; padding-left:0; margin:0 0;">
                                            <li>
                                                <ul style="list-style:none; padding-left:0; margin:0 0;">
                                                    <li>
                                                        <div title="display">History of Present illness Narrative</div> ( <div title="code">10164-2</div> ) </li>
                                                    <li>
                                                        <div title="system">
                                                            <a href="http://loinc.org">http://loinc.org</a>
                                                        </div>
                                                    </li>
                                                </ul>
                                            </li>
                                        </ul>
                                    </td>
                                </tr>
                                <tr>
                                    <td class="text-no-entries" colspan="2" lang="en-US"> Persistent Cough REPORTED starting on 2018/03/05 <br /> Whooping Respiration not reported <br /> Paroxysms Of Coughing
                                        REPORTED starting on 2018/03/06 <br /> Post-tussive vomiting not reported </td>
                                </tr>
                            </table>
                        </div>
                    </text>
                </section>
                <section>
                    <title value="Problems Section" />
                    <code>
                        <coding>
                            <system value="http://loinc.org" />
                            <code value="11450-4" />
                            <display value="Problem list - Reported" />
                        </coding>
                    </code>
                    <text>
                        <status value="generated" />
                        <div xmlns="http://www.w3.org/1999/xhtml">
                            <table>
                                <tr>
                                    <td style="font-weight: bold">title</td>
                                    <td>
                                        <div title="title">Problems Section</div>
                                    </td>
                                </tr>
                                <tr>
                                    <td style="font-weight: bold">code</td>
                                    <td>
                                        <ul style="list-style:none; padding-left:0; margin:0 0;">
                                            <li>
                                                <ul style="list-style:none; padding-left:0; margin:0 0;">
                                                    <li>
                                                        <div title="display">Problem list - Reported</div> ( <div title="code">11450-4</div> ) </li>
                                                    <li>
                                                        <div title="system">
                                                            <a href="http://loinc.org">http://loinc.org</a>
                                                        </div>
                                                    </li>
                                                </ul>
                                            </li>
                                        </ul>
                                    </td>
                                </tr>
                                <tr>
                                    <td style="font-weight: bold">entry</td>
                                    <td>
                                        <a href="Condition-condition-eicr-eve-everywoman-common-cold.html">Common cold (disorder)</a>
                                        <table>
                                            <tr>
                                                <td style="font-weight: bold">id</td>
                                                <td>
                                                    <div title="id">condition-eicr-eve-everywoman-common-cold</div>
                                                </td>
                                            </tr>
                                            <tr>
                                                <td style="font-weight: bold">meta</td>
                                                <td>
                                                    <table>
                                                        <tr>
                                                            <td style="font-weight: bold">versionId</td>
                                                            <td>
                                                                <div title="versionId">15</div>
                                                            </td>
                                                        </tr>
                                                        <tr>
                                                            <td style="font-weight: bold">lastUpdated</td>
                                                            <td>
                                                                <div title="lastUpdated">2019-10-10T21:21:49.000-04:00</div>
                                                            </td>
                                                        </tr>
                                                        <tr>
                                                            <td style="font-weight: bold">profile</td>
                                                            <td>
                                                                <div title="profile">http://hl7.org/fhir/us/ecr/StructureDefinition/us-ph-condition</div>
                                                            </td>
                                                        </tr>
                                                    </table>
                                                </td>
                                            </tr>
                                            <tr>
                                                <td style="font-weight: bold">category</td>
                                                <td>
                                                    <ul style="list-style:none; padding-left:0; margin:0 0;">
                                                        <li>
                                                            <ul style="list-style:none; padding-left:0; margin:0 0;">
                                                                <li>
                                                                    <div title="display">Problem List Item</div> ( <div title="code">problem-list-item</div> ) </li>
                                                                <li>
                                                                    <div title="system">
                                                                        <a href="http://terminology.hl7.org/CodeSystem/condition-category">http://terminology.hl7.org/CodeSystem/condition-category</a>
                                                                    </div>
                                                                </li>
                                                            </ul>
                                                        </li>
                                                    </ul>
                                                </td>
                                            </tr>
                                            <tr>
                                                <td style="font-weight: bold">code</td>
                                                <td>
                                                    <ul style="list-style:none; padding-left:0; margin:0 0;">
                                                        <li>
                                                            <ul style="list-style:none; padding-left:0; margin:0 0;">
                                                                <li>
                                                                    <div title="display">Common cold (disorder)</div> ( <div title="code">82272006</div> ) </li>
                                                                <li>
                                                                    <div title="system">
                                                                        <a href="http://snomed.info/sct">http://snomed.info/sct</a>
                                                                    </div>
                                                                </li>
                                                            </ul>
                                                        </li>
                                                    </ul>
                                                </td>
                                            </tr>
                                            <tr>
                                                <td style="font-weight: bold">subject</td>
                                                <td>
                                                    <ul style="list-style:none; padding-left:0; margin:0 0;">
                                                        <li />
                                                        <li>
                                                            <a href="Patient-patient-ecr-eve-everywoman.html">Eve Everywoman</a>
                                                        </li>
                                                    </ul>
                                                </td>
                                            </tr>
                                            <tr>
                                                <td style="font-weight: bold">onsetDateTime</td>
                                                <td>
                                                    <div title="onsetDateTime">2017-09-23</div>
                                                </td>
                                            </tr>
                                            <tr>
                                                <td style="font-weight: bold">asserter</td>
                                                <td>
                                                    <ul style="list-style:none; padding-left:0; margin:0 0;">
                                                        <li />
                                                        <li>
                                                            <a href="Practitioner-practitioner-us-core-henry-seven.html">Henry Seven, MD</a>
                                                        </li>
                                                    </ul>
                                                </td>
                                            </tr>
                                        </table>
                                    </td>
                                </tr>
                            </table>
                        </div>
                    </text>
                    <entry>
                        <reference value="Condition/condition-eicr-eve-everywoman-common-cold" />
                        <display value="Common cold (disorder)" />
                    </entry>
                </section>
                <section>
                    <title value="Medications Administered Section" />
                    <code>
                        <coding>
                            <system value="http://loinc.org" />
                            <code value="29549-3" />
                            <display value="Medication administered Narrative" />
                        </coding>
                    </code>
                    <text>
                        <status value="generated" />
                        <div xmlns="http://www.w3.org/1999/xhtml">
                            <table>
                                <tr>
                                    <td style="font-weight: bold">title</td>
                                    <td>
                                        <div title="title">Medications Administered Section</div>
                                    </td>
                                </tr>
                                <tr>
                                    <td style="font-weight: bold">code</td>
                                    <td>
                                        <ul style="list-style:none; padding-left:0; margin:0 0;">
                                            <li>
                                                <ul style="list-style:none; padding-left:0; margin:0 0;">
                                                    <li>
                                                        <div title="display">Medication administered Narrative</div> ( <div title="code">29549-3</div> ) </li>
                                                    <li>
                                                        <div title="system">
                                                            <a href="http://loinc.org">http://loinc.org</a>
                                                        </div>
                                                    </li>
                                                </ul>
                                            </li>
                                        </ul>
                                    </td>
                                </tr>
                                <tr>
                                    <td style="font-weight: bold">entry</td>
                                    <td>
                                        <a href="MedicationAdministration-medicationadministration-eve-everywoman-azithromycin.html">Azithromycin 500 MG Oral Tablet</a>
                                        <table>
                                            <tr>
                                                <td style="font-weight: bold">id</td>
                                                <td>
                                                    <div title="id">medicationadministration-eve-everywoman-azithromycin</div>
                                                </td>
                                            </tr>
                                            <tr>
                                                <td style="font-weight: bold">meta</td>
                                                <td>
                                                    <table>
                                                        <tr>
                                                            <td style="font-weight: bold">versionId</td>
                                                            <td>
                                                                <div title="versionId">10</div>
                                                            </td>
                                                        </tr>
                                                        <tr>
                                                            <td style="font-weight: bold">lastUpdated</td>
                                                            <td>
                                                                <div title="lastUpdated">2019-10-05T03:11:22.000-04:00</div>
                                                            </td>
                                                        </tr>
                                                    </table>
                                                </td>
                                            </tr>
                                            <tr>
                                                <td style="font-weight: bold">status</td>
                                                <td>
                                                    <div title="status">completed</div>
                                                </td>
                                            </tr>
                                            <tr>
                                                <td style="font-weight: bold">medicationCodeableConcept</td>
                                                <td>
                                                    <ul style="list-style:none; padding-left:0; margin:0 0;">
                                                        <li>
                                                            <div title="text">Azithromycin 500 MG Oral Tablet</div>
                                                        </li>
                                                        <li>
                                                            <ul style="list-style:none; padding-left:0; margin:0 0;">
                                                                <li>
                                                                    <div title="display">Azithromycin 500 MG Oral Tablet</div> ( <div title="code">248656</div> ) </li>
                                                                <li>
                                                                    <div title="system">
                                                                        <a href="http://www.nlm.nih.gov/research/umls/rxnorm">http://www.nlm.nih.gov/research/umls/rxnorm</a>
                                                                    </div>
                                                                </li>
                                                            </ul>
                                                        </li>
                                                    </ul>
                                                </td>
                                            </tr>
                                            <tr>
                                                <td style="font-weight: bold">subject</td>
                                                <td>
                                                    <ul style="list-style:none; padding-left:0; margin:0 0;">
                                                        <li />
                                                        <li>
                                                            <a href="Patient-patient-ecr-eve-everywoman.html">Eve Everywoman</a>
                                                        </li>
                                                    </ul>
                                                </td>
                                            </tr>
                                            <tr>
                                                <td style="font-weight: bold">effectivePeriod</td>
                                                <td>
                                                    <table>
                                                        <tr>
                                                            <td style="font-weight: bold">start</td>
                                                            <td>
                                                                <div title="start">2018-03-07</div>
                                                            </td>
                                                        </tr>
                                                        <tr>
                                                            <td style="font-weight: bold">end</td>
                                                            <td>
                                                                <div title="end">2018-03-07</div>
                                                            </td>
                                                        </tr>
                                                    </table>
                                                </td>
                                            </tr>
                                            <tr>
                                                <td style="font-weight: bold">dosage</td>
                                                <td>
                                                    <table>
                                                        <tr>
                                                            <td style="font-weight: bold">route</td>
                                                            <td>
                                                                <ul style="list-style:none; padding-left:0; margin:0 0;">
                                                                    <li>
                                                                        <ul style="list-style:none; padding-left:0; margin:0 0;">
                                                                            <li>
                                                                                <div title="display">Oral Route</div> ( <div title="code">26643006</div> ) </li>
                                                                            <li>
                                                                                <div title="system">
                                                                                    <a href="http://snomed.info/sct">http://snomed.info/sct</a>
                                                                                </div>
                                                                            </li>
                                                                        </ul>
                                                                    </li>
                                                                </ul>
                                                            </td>
                                                        </tr>
                                                        <tr>
                                                            <td style="font-weight: bold">method</td>
                                                            <td>
                                                                <ul style="list-style:none; padding-left:0; margin:0 0;">
                                                                    <li>
                                                                        <ul style="list-style:none; padding-left:0; margin:0 0;">
                                                                            <li>
                                                                                <div title="display">Swallow - dosing instruction imperative (qualifier value)</div> ( <div title="code">421521009</div> ) </li>
                                                                            <li>
                                                                                <div title="system">
                                                                                    <a href="http://snomed.info/sct">http://snomed.info/sct</a>
                                                                                </div>
                                                                            </li>
                                                                        </ul>
                                                                    </li>
                                                                </ul>
                                                            </td>
                                                        </tr>
                                                        <tr>
                                                            <td style="font-weight: bold">dose</td>
                                                            <td>
                                                                <table>
                                                                    <tr>
                                                                        <td style="font-weight: bold">value</td>
                                                                        <td>
                                                                            <div title="value">2</div>
                                                                        </td>
                                                                    </tr>
                                                                    <tr>
                                                                        <td style="font-weight: bold">unit</td>
                                                                        <td>
                                                                            <div title="unit">TAB</div>
                                                                        </td>
                                                                    </tr>
                                                                    <tr>
                                                                        <td style="font-weight: bold">system</td>
                                                                        <td>
                                                                            <div title="system">
                                                                                <a href="http://terminology.hl7.org/CodeSystem/v3-orderableDrugForm"
                                                                                    >http://terminology.hl7.org/CodeSystem/v3-orderableDrugForm</a>
                                                                            </div>
                                                                        </td>
                                                                    </tr>
                                                                    <tr>
                                                                        <td style="font-weight: bold">code</td>
                                                                        <td>
                                                                            <div title="code">TAB</div>
                                                                        </td>
                                                                    </tr>
                                                                </table>
                                                            </td>
                                                        </tr>
                                                    </table>
                                                </td>
                                            </tr>
                                        </table>
                                    </td>
                                </tr>
                            </table>
                        </div>
                    </text>
                    <entry>
                        <reference value="MedicationAdministration/medicationadministration-eve-everywoman-azithromycin" />
                        <display value="Azithromycin 500 MG Oral Tablet" />
                    </entry>
                </section>
                <section>
                    <title value="Admission Medications Section" />
                    <code>
                        <coding>
                            <system value="http://loinc.org" />
                            <code value="42346-7" />
                            <display value="Medications on admission (narrative)" />
                        </coding>
                    </code>
                    <text>
                        <status value="generated" />
                        <div xmlns="http://www.w3.org/1999/xhtml">
                            <table>
                                <tr>
                                    <td style="font-weight: bold">title</td>
                                    <td>
                                        <div title="title">Admission Medications Section</div>
                                    </td>
                                </tr>
                                <tr>
                                    <td style="font-weight: bold">code</td>
                                    <td>
                                        <ul style="list-style:none; padding-left:0; margin:0 0;">
                                            <li>
                                                <ul style="list-style:none; padding-left:0; margin:0 0;">
                                                    <li>
                                                        <div title="display">Medications on admission (narrative)</div> ( <div title="code">42346-7</div> ) </li>
                                                    <li>
                                                        <div title="system">
                                                            <a href="http://loinc.org">http://loinc.org</a>
                                                        </div>
                                                    </li>
                                                </ul>
                                            </li>
                                        </ul>
                                    </td>
                                </tr>
                                <tr>
                                    <td style="font-weight: bold">entry</td>
                                    <td>
                                        <a href="MedicationAdministration-medicationadministration-eve-everywoman-naloxone-response.html">1 ML naloxone hydrochloride 0.4 MG/ML Injection</a>
                                    </td>
                                </tr>
                            </table>
                        </div>
                    </text>
                    <entry>
                        <reference value="MedicationAdministration/medicationadministration-eve-everywoman-naloxone-response" />
                        <display value="1 ML naloxone hydrochloride 0.4 MG/ML Injection" />
                    </entry>
                </section>
                <section>
                    <title value="Medications Section" />
                    <code>
                        <coding>
                            <system value="http://loinc.org" />
                            <code value="10160-0" />
                            <display value="History of Medication use Narrative" />
                        </coding>
                    </code>
                    <text>
                        <status value="generated" />
                        <div xmlns="http://www.w3.org/1999/xhtml">
                            <table>
                                <tr>
                                    <td style="font-weight: bold">title</td>
                                    <td>
                                        <div title="title">Medications Section</div>
                                    </td>
                                </tr>
                                <tr>
                                    <td style="font-weight: bold">code</td>
                                    <td>
                                        <ul style="list-style:none; padding-left:0; margin:0 0;">
                                            <li>
                                                <ul style="list-style:none; padding-left:0; margin:0 0;">
                                                    <li>
                                                        <div title="display">History of Medication use Narrative</div> ( <div title="code">10160-0</div> ) </li>
                                                    <li>
                                                        <div title="system">
                                                            <a href="http://loinc.org">http://loinc.org</a>
                                                        </div>
                                                    </li>
                                                </ul>
                                            </li>
                                        </ul>
                                    </td>
                                </tr>
                                <tr>
                                    <td style="font-weight: bold">entry</td>
                                    <td>
                                        <a href="MedicationAdministration-medicationadministration-eve-everywoman-azithromycin.html">Azithromycin 500 MG Oral Tablet</a>
                                    </td>
                                </tr>
                            </table>
                        </div>
                    </text>
                    <entry>
                        <reference value="MedicationAdministration/medicationadministration-eve-everywoman-azithromycin" />
                        <display value="Azithromycin 500 MG Oral Tablet" />
                    </entry>
                </section>
                <section>
                    <title value="Results Section" />
                    <code>
                        <coding>
                            <system value="http://loinc.org" />
                            <code value="30954-2" />
                            <display value="Relevant diagnostic tests/laboratory data Narrative" />
                        </coding>
                    </code>
                    <text>
                        <status value="generated" />
                        <div xmlns="http://www.w3.org/1999/xhtml">
                            <table>
                                <tr>
                                    <td style="font-weight: bold">title</td>
                                    <td>
                                        <div title="title">Results Section</div>
                                    </td>
                                </tr>
                                <tr>
                                    <td style="font-weight: bold">code</td>
                                    <td>
                                        <ul style="list-style:none; padding-left:0; margin:0 0;">
                                            <li>
                                                <ul style="list-style:none; padding-left:0; margin:0 0;">
                                                    <li>
                                                        <div title="display">Relevant Dx tests/lab data</div> ( <div title="code">30954-2</div> ) </li>
                                                    <li>
                                                        <div title="system">
                                                            <a href="http://loinc.org">http://loinc.org</a>
                                                        </div>
                                                    </li>
                                                </ul>
                                            </li>
                                        </ul>
                                    </td>
                                </tr>
                                <tr>
                                    <td style="font-weight: bold">entry</td>
                                    <td>
                                        <a href="Observation-observation-us-ph-lab-result-eve-everywoman-lymphocytes.html">Lymphocytes [#/​volume] in Blood by Automated count - Interpretation: High</a>
                                        <table>
                                            <tr>
                                                <td style="font-weight: bold">id</td>
                                                <td>
                                                    <div title="id">observation-us-ph-lab-result-eve-everywoman-lymphocytes</div>
                                                </td>
                                            </tr>
                                            <tr>
                                                <td style="font-weight: bold">meta</td>
                                                <td>
                                                    <table>
                                                        <tr>
                                                            <td style="font-weight: bold">versionId</td>
                                                            <td>
                                                                <div title="versionId">10</div>
                                                            </td>
                                                        </tr>
                                                        <tr>
                                                            <td style="font-weight: bold">lastUpdated</td>
                                                            <td>
                                                                <div title="lastUpdated">2019-10-05T02:50:13.000-04:00</div>
                                                            </td>
                                                        </tr>
                                                        <tr>
                                                            <td style="font-weight: bold">profile</td>
                                                            <td>
                                                                <div title="profile">http://hl7.org/fhir/us/ecr/StructureDefinition/us-ph-lab-result-observation</div>
                                                            </td>
                                                        </tr>
                                                    </table>
                                                </td>
                                            </tr>
                                            <tr>
                                                <td style="font-weight: bold">status</td>
                                                <td>
                                                    <div title="status">final</div>
                                                </td>
                                            </tr>
                                            <tr>
                                                <td style="font-weight: bold">category</td>
                                                <td>
                                                    <ul style="list-style:none; padding-left:0; margin:0 0;">
                                                        <li>
                                                            <div title="text">Laboratory</div>
                                                        </li>
                                                        <li>
                                                            <ul style="list-style:none; padding-left:0; margin:0 0;">
                                                                <li>
                                                                    <div title="display">Laboratory</div> ( <div title="code">laboratory</div> ) </li>
                                                                <li>
                                                                    <div title="system">
                                                                        <a href="http://terminology.hl7.org/CodeSystem/observation-category">http://terminology.hl7.org/CodeSystem/observation-category</a>
                                                                    </div>
                                                                </li>
                                                            </ul>
                                                        </li>
                                                    </ul>
                                                </td>
                                            </tr>
                                            <tr>
                                                <td style="font-weight: bold">code</td>
                                                <td>
                                                    <ul style="list-style:none; padding-left:0; margin:0 0;">
                                                        <li>
                                                            <ul style="list-style:none; padding-left:0; margin:0 0;">
                                                                <li>
                                                                    <div title="display">Lymphocytes [#/volume] in Blood by Automated count</div> ( <div title="code">731-0</div> ) </li>
                                                                <li>
                                                                    <div title="system">
                                                                        <a href="http://loinc.org">http://loinc.org</a>
                                                                    </div>
                                                                </li>
                                                            </ul>
                                                        </li>
                                                    </ul>
                                                </td>
                                            </tr>
                                            <tr>
                                                <td style="font-weight: bold">subject</td>
                                                <td>
                                                    <ul style="list-style:none; padding-left:0; margin:0 0;">
                                                        <li />
                                                        <li>
                                                            <a href="Patient-patient-ecr-eve-everywoman.html">Eve Everywoman</a>
                                                        </li>
                                                    </ul>
                                                </td>
                                            </tr>
                                            <tr>
                                                <td style="font-weight: bold">effectiveDateTime</td>
                                                <td>
                                                    <div title="effectiveDateTime">2018-03-07</div>
                                                </td>
                                            </tr>
                                            <tr>
                                                <td style="font-weight: bold">valueQuantity</td>
                                                <td>
                                                    <ul style="list-style:none; padding-left:0; margin:0 0;">
                                                        <li>
                                                            <div title="value">5.2</div>
                                                        </li>
                                                        <li>
                                                            <div title="system">
                                                                <a href="http://unitsofmeasure.org">http://unitsofmeasure.org</a>
                                                            </div>
                                                        </li>
                                                        <li>
                                                            <div title="code">10*3/uL</div>
                                                        </li>
                                                    </ul>
                                                </td>
                                            </tr>
                                            <tr>
                                                <td style="font-weight: bold">interpretation</td>
                                                <td>
                                                    <ul style="list-style:none; padding-left:0; margin:0 0;">
                                                        <li>
                                                            <ul style="list-style:none; padding-left:0; margin:0 0;">
                                                                <li>
                                                                    <div title="display">High</div> ( <div title="code">H</div> ) </li>
                                                                <li>
                                                                    <div title="system">
                                                                        <a href="http://terminology.hl7.org/CodeSystem/v3-ObservationInterpretation"
                                                                            >http://terminology.hl7.org/CodeSystem/v3-ObservationInterpretation</a>
                                                                    </div>
                                                                </li>
                                                            </ul>
                                                        </li>
                                                    </ul>
                                                </td>
                                            </tr>
                                            <tr>
                                                <td style="font-weight: bold">referenceRange</td>
                                                <td>
                                                    <table>
                                                        <tr>
                                                            <td style="font-weight: bold">low</td>
                                                            <td>
                                                                <table>
                                                                    <tr>
                                                                        <td style="font-weight: bold">value</td>
                                                                        <td>
                                                                            <div title="value">1</div>
                                                                        </td>
                                                                    </tr>
                                                                    <tr>
                                                                        <td style="font-weight: bold">system</td>
                                                                        <td>
                                                                            <div title="system">
                                                                                <a href="http://unitsofmeasure.org">http://unitsofmeasure.org</a>
                                                                            </div>
                                                                        </td>
                                                                    </tr>
                                                                    <tr>
                                                                        <td style="font-weight: bold">code</td>
                                                                        <td>
                                                                            <div title="code">10*3/uL</div>
                                                                        </td>
                                                                    </tr>
                                                                </table>
                                                            </td>
                                                        </tr>
                                                        <tr>
                                                            <td style="font-weight: bold">high</td>
                                                            <td>
                                                                <table>
                                                                    <tr>
                                                                        <td style="font-weight: bold">value</td>
                                                                        <td>
                                                                            <div title="value">4.8</div>
                                                                        </td>
                                                                    </tr>
                                                                    <tr>
                                                                        <td style="font-weight: bold">system</td>
                                                                        <td>
                                                                            <div title="system">
                                                                                <a href="http://unitsofmeasure.org">http://unitsofmeasure.org</a>
                                                                            </div>
                                                                        </td>
                                                                    </tr>
                                                                    <tr>
                                                                        <td style="font-weight: bold">code</td>
                                                                        <td>
                                                                            <div title="code">10*3/uL</div>
                                                                        </td>
                                                                    </tr>
                                                                </table>
                                                            </td>
                                                        </tr>
                                                    </table>
                                                </td>
                                            </tr>
                                        </table>
                                    </td>
                                </tr>
                            </table>
                        </div>
                    </text>
                    <entry>
                        <reference value="Observation/observation-us-ph-lab-result-eve-everywoman-lymphocytes" />
                        <display value="Lymphocytes [#/​volume] in Blood by Automated count - Interpretation: High" />
                    </entry>
                </section>
                <section>
                    <title value="Plan of Treatment Section" />
                    <code>
                        <coding>
                            <system value="http://loinc.org" />
                            <code value="18776-5" />
                            <display value="Plan of care note" />
                        </coding>
                    </code>
                    <text>
                        <status value="generated" />
                        <div xmlns="http://www.w3.org/1999/xhtml">
                            <table>
                                <tr>
                                    <td style="font-weight: bold">title</td>
                                    <td>
                                        <div title="title">Plan of Treatment Section</div>
                                    </td>
                                </tr>
                                <tr>
                                    <td style="font-weight: bold">code</td>
                                    <td>
                                        <ul style="list-style:none; padding-left:0; margin:0 0;">
                                            <li>
                                                <ul style="list-style:none; padding-left:0; margin:0 0;">
                                                    <li>
                                                        <div title="display">Plan of care note</div> ( <div title="code">18776-5</div> ) </li>
                                                    <li>
                                                        <div title="system">
                                                            <a href="http://loinc.org">http://loinc.org</a>
                                                        </div>
                                                    </li>
                                                </ul>
                                            </li>
                                        </ul>
                                    </td>
                                </tr>
                                <tr>
                                    <td style="font-weight: bold">entry</td>
                                    <td>
                                        <ul style="list-style:none; padding-left:0; margin:0 0;">
                                            <li>
                                                <b>Trigger code</b>
                                            </li>
                                            <li>Trigger Code: </li>
                                            <li>Trigger Code Display: </li>
                                            <li>Trigger Code System: </li>
                                            <li>Trigger Code Value Set: urn:oid:2.16.840.1.114222.4.11.7508</li>
                                            <li>Trigger Code Value Set Version: 19/05/2018</li>
                                        </ul>
                                        <a href="ServiceRequest-servicerequest-eicr-zika.html">Request for Zika virus envelope (E) gene [Presence] in Serum by Probe and target amplification method</a>
                                        <table>
                                            <tr>
                                                <td style="font-weight: bold">id</td>
                                                <td>
                                                    <div title="id">servicerequest-eicr-zika</div>
                                                </td>
                                            </tr>
                                            <tr>
                                                <td style="font-weight: bold">meta</td>
                                                <td>
                                                    <table>
                                                        <tr>
                                                            <td style="font-weight: bold">versionId</td>
                                                            <td>
                                                                <div title="versionId">9</div>
                                                            </td>
                                                        </tr>
                                                        <tr>
                                                            <td style="font-weight: bold">lastUpdated</td>
                                                            <td>
                                                                <div title="lastUpdated">2019-10-23T13:56:36.000-04:00</div>
                                                            </td>
                                                        </tr>
                                                        <tr>
                                                            <td style="font-weight: bold">profile</td>
                                                            <td>
                                                                <div title="profile">http://hl7.org/fhir/us/ecr/StructureDefinition/eicr-servicerequest</div>
                                                            </td>
                                                        </tr>
                                                    </table>
                                                </td>
                                            </tr>
                                            <tr>
                                                <td style="font-weight: bold">status</td>
                                                <td>
                                                    <div title="status">completed</div>
                                                </td>
                                            </tr>
                                            <tr>
                                                <td style="font-weight: bold">intent</td>
                                                <td>
                                                    <div title="intent">order</div>
                                                </td>
                                            </tr>
                                            <tr>
                                                <td style="font-weight: bold">category</td>
                                                <td>
                                                    <ul style="list-style:none; padding-left:0; margin:0 0;">
                                                        <li>
                                                            <div title="text">Diagnostics Procedure</div>
                                                        </li>
                                                        <li>
                                                            <ul style="list-style:none; padding-left:0; margin:0 0;">
                                                                <li>
                                                                    <div title="display">Diagnostic procedure (procedure)</div> ( <div title="code">103693007</div> ) </li>
                                                                <li>
                                                                    <div title="system">
                                                                        <a href="http://snomed.info/sct">http://snomed.info/sct</a>
                                                                    </div>
                                                                </li>
                                                            </ul>
                                                        </li>
                                                    </ul>
                                                </td>
                                            </tr>
                                            <tr>
                                                <td style="font-weight: bold">code</td>
                                                <td>
                                                    <ul style="list-style:none; padding-left:0; margin:0 0;">
                                                        <li>
                                                            <div title="text">Zika RT-PCR</div>
                                                        </li>
                                                        <li>
                                                            <ul style="list-style:none; padding-left:0; margin:0 0;">
                                                                <li>
                                                                    <div title="display">Zika virus envelope E gene [Presence] in Serum by NAA with probe detection</div> ( <div title="code">80825-3</div> ) </li>
                                                                <li>
                                                                    <div title="system">
                                                                        <a href="http://loinc.org">http://loinc.org</a>
                                                                    </div>
                                                                </li>
                                                            </ul>
                                                        </li>
                                                    </ul>
                                                </td>
                                            </tr>
                                            <tr>
                                                <td style="font-weight: bold">subject</td>
                                                <td>
                                                    <ul style="list-style:none; padding-left:0; margin:0 0;">
                                                        <li />
                                                        <li>
                                                            <a href="Patient-patient-ecr-eve-everywoman.html">Eve Everywoman</a>
                                                        </li>
                                                    </ul>
                                                </td>
                                            </tr>
                                            <tr>
                                                <td style="font-weight: bold">performer</td>
                                                <td>
                                                    <ul style="list-style:none; padding-left:0; margin:0 0;">
                                                        <li />
                                                        <li>
                                                            <a href="Organization-organization-ecr-acme-laboratory.html">Acme Labs</a>
                                                        </li>
                                                    </ul>
                                                </td>
                                            </tr>
                                        </table>
                                    </td>
                                </tr>
                            </table>
                        </div>
                    </text>
                    <entry>
                        <extension url="http://hl7.org/fhir/us/ecr/StructureDefinition/eicr-trigger-code-flag-extension">
                            <extension url="triggerCodeValueSet">
                                <valueOid value="urn:oid:2.16.840.1.114222.4.11.7508" />
                            </extension>
                            <extension url="triggerCodeValueSetVersion">
                                <valueString value="19/05/2018" />
                            </extension>
                            <extension url="triggerCode">
                                <valueCoding>
                                    <system value="http://loinc.org" />
                                    <code value="80825-3" />
                                    <display value="Zika virus envelope E gene [Presence] in Serum by NAA with probe detection" />
                                </valueCoding>
                            </extension>
                        </extension>
                        <reference value="ServiceRequest/servicerequest-eicr-zika" />
                        <display value="Request for Zika virus envelope (E) gene [Presence] in Serum by Probe and target amplification method" />
                    </entry>
                </section>
                <section>
                    <title value="Immunizations Section" />
                    <code>
                        <coding>
                            <system value="http://loinc.org" />
                            <code value="11369-6" />
                            <display value="History of Immunization Narrative" />
                        </coding>
                    </code>
                    <text>
                        <status value="generated" />
                        <div xmlns="http://www.w3.org/1999/xhtml">
                            <table>
                                <tr>
                                    <td style="font-weight: bold">title</td>
                                    <td>
                                        <div title="title">Immunizations Section</div>
                                    </td>
                                </tr>
                                <tr>
                                    <td style="font-weight: bold">code</td>
                                    <td>
                                        <ul style="list-style:none; padding-left:0; margin:0 0;">
                                            <li>
                                                <ul style="list-style:none; padding-left:0; margin:0 0;">
                                                    <li>
                                                        <div title="display">History of Immunization Narrative</div> ( <div title="code">11369-6</div> ) </li>
                                                    <li>
                                                        <div title="system">
                                                            <a href="http://loinc.org">http://loinc.org</a>
                                                        </div>
                                                    </li>
                                                </ul>
                                            </li>
                                        </ul>
                                    </td>
                                </tr>
                                <tr>
                                    <td style="font-weight: bold">entry</td>
                                    <td>
                                        <a href="Immunization-immunization-ecr-pneumo.html">pneumococcal polysaccharide vaccine</a>
                                    </td>
                                </tr>
                                <tr>
                                    <td style="font-weight: bold">entry</td>
                                    <td>
                                        <a href="Observation-observation-vaccine-credential-assertion-eve-everywoman.html">Vaccine Credential Patient Assertion Observation Example</a>
                                    </td>
                                </tr>
                            </table>
                        </div>
                    </text>
                    <entry>
                        <reference value="Immunization/immunization-ecr-pneumo" />
                        <display value="pneumococcal polysaccharide vaccine" />
                    </entry>
                    <entry>
                        <reference value="Observation/observation-vaccine-credential-assertion-eve-everywoman" />
                        <display value="Vaccine Credential Patient Assertion Observation Example" />
                    </entry>
                </section>
                <section>
                    <title value="Procedures Section" />
                    <code>
                        <coding>
                            <system value="http://loinc.org" />
                            <code value="47519-4" />
                            <display value="History of Procedures Document" />
                        </coding>
                    </code>
                    <text>
                        <status value="generated" />
                        <div xmlns="http://www.w3.org/1999/xhtml">
                            <table>
                                <tr>
                                    <td style="font-weight: bold">title</td>
                                    <td>
                                        <div title="title">Procedures Section</div>
                                    </td>
                                </tr>
                                <tr>
                                    <td style="font-weight: bold">code</td>
                                    <td>
                                        <ul style="list-style:none; padding-left:0; margin:0 0;">
                                            <li>
                                                <ul style="list-style:none; padding-left:0; margin:0 0;">
                                                    <li>
                                                        <div title="display">History of Procedures Document</div> ( <div title="code">47519-4</div> ) </li>
                                                    <li>
                                                        <div title="system">
                                                            <a href="http://loinc.org">http://loinc.org</a>
                                                        </div>
                                                    </li>
                                                </ul>
                                            </li>
                                        </ul>
                                    </td>
                                </tr>
                                <tr>
                                    <td style="font-weight: bold">entry</td>
                                    <td>
                                        <a href="Procedure-us-ph-procedure-ecmo.html">Extracorporeal membrane oxygenation (procedure)</a>
                                    </td>
                                </tr>
                            </table>
                        </div>
                    </text>
                    <entry>
                        <reference value="Procedure/us-ph-procedure-ecmo" />
                        <display value="Extracorporeal membrane oxygenation (procedure)" />
                    </entry>
                </section>
                <section>
                    <title value="Vital Signs Section" />
                    <code>
                        <coding>
                            <system value="http://loinc.org" />
                            <code value="8716-3" />
                            <display value="Vital signs" />
                        </coding>
                    </code>
                    <text>
                        <status value="generated" />
                        <div xmlns="http://www.w3.org/1999/xhtml">
                            <table>
                                <tr>
                                    <td style="font-weight: bold">title</td>
                                    <td>
                                        <div title="title">Vital Signs Section</div>
                                    </td>
                                </tr>
                                <tr>
                                    <td style="font-weight: bold">code</td>
                                    <td>
                                        <ul style="list-style:none; padding-left:0; margin:0 0;">
                                            <li>
                                                <ul style="list-style:none; padding-left:0; margin:0 0;">
                                                    <li>
                                                        <div title="display">Vital signs</div> ( <div title="code">8716-3</div> ) </li>
                                                    <li>
                                                        <div title="system">
                                                            <a href="http://loinc.org">http://loinc.org</a>
                                                        </div>
                                                    </li>
                                                </ul>
                                            </li>
                                        </ul>
                                    </td>
                                </tr>
                                <tr>
                                    <td style="font-weight: bold">entry</td>
                                    <td>
                                        <a href="Observation-observation-blood-pressure-eve-everywoman.html">Blood pressure systolic and diastolic</a>
                                    </td>
                                </tr>
                            </table>
                        </div>
                    </text>
                    <entry>
                        <reference value="Observation/observation-blood-pressure-eve-everywoman" />
                        <display value="Blood pressure systolic and diastolic" />
                    </entry>
                </section>
                <section>
                    <title value="Social History Section" />
                    <code>
                        <coding>
                            <system value="http://loinc.org" />
                            <code value="29762-2" />
                            <display value="Social history Narrative" />
                        </coding>
                    </code>
                    <text>
                        <status value="generated" />
                        <div xmlns="http://www.w3.org/1999/xhtml">
                            <table>
                                <tr>
                                    <td style="font-weight: bold">title</td>
                                    <td>
                                        <div title="title">Social History Section</div>
                                    </td>
                                </tr>
                                <tr>
                                    <td style="font-weight: bold">code</td>
                                    <td>
                                        <ul style="list-style:none; padding-left:0; margin:0 0;">
                                            <li>
                                                <ul style="list-style:none; padding-left:0; margin:0 0;">
                                                    <li>
                                                        <div title="display">Social history Narrative</div> ( <div title="code">29762-2</div> ) </li>
                                                    <li>
                                                        <div title="system">
                                                            <a href="http://loinc.org">http://loinc.org</a>
                                                        </div>
                                                    </li>
                                                </ul>
                                            </li>
                                        </ul>
                                    </td>
                                </tr>
                                <tr>
                                    <td style="font-weight: bold">entry</td>
                                    <td>
                                        <a href="Observation-observation-travel-history-eve-everywoman-201801.html">eICR Travel History: Eve Everywoman 2018-01</a>
                                        <table>
                                            <tr>
                                                <td style="font-weight: bold">id</td>
                                                <td>
                                                    <div title="id">observation-travel-history-eve-everywoman-201801</div>
                                                </td>
                                            </tr>
                                            <tr>
                                                <td style="font-weight: bold">meta</td>
                                                <td>
                                                    <table>
                                                        <tr>
                                                            <td style="font-weight: bold">versionId</td>
                                                            <td>
                                                                <div title="versionId">11</div>
                                                            </td>
                                                        </tr>
                                                        <tr>
                                                            <td style="font-weight: bold">lastUpdated</td>
                                                            <td>
                                                                <div title="lastUpdated">2019-10-05T03:15:42.000-04:00</div>
                                                            </td>
                                                        </tr>
                                                        <tr>
                                                            <td style="font-weight: bold">profile</td>
                                                            <td>
                                                                <div title="profile">http://hl7.org/fhir/us/ecr/StructureDefinition/us-ph-travel-history</div>
                                                            </td>
                                                        </tr>
                                                    </table>
                                                </td>
                                            </tr>
                                            <tr>
                                                <td style="font-weight: bold">status</td>
                                                <td>
                                                    <div title="status">final</div>
                                                </td>
                                            </tr>
                                            <tr>
                                                <td style="font-weight: bold">code</td>
                                                <td>
                                                    <ul style="list-style:none; padding-left:0; margin:0 0;">
                                                        <li>
                                                            <div title="text">Travel History</div>
                                                        </li>
                                                        <li>
                                                            <ul style="list-style:none; padding-left:0; margin:0 0;">
                                                                <li>
                                                                    <div title="display">Travel</div> ( <div title="code">420008001</div> ) </li>
                                                                <li>
                                                                    <div title="system">
                                                                        <a href="http://snomed.info/sct">http://snomed.info/sct</a>
                                                                    </div>
                                                                </li>
                                                            </ul>
                                                        </li>
                                                    </ul>
                                                </td>
                                            </tr>
                                            <tr>
                                                <td style="font-weight: bold">subject</td>
                                                <td>
                                                    <ul style="list-style:none; padding-left:0; margin:0 0;">
                                                        <li />
                                                        <li>
                                                            <a href="Patient-patient-ecr-eve-everywoman.html">Eve Everywoman</a>
                                                        </li>
                                                    </ul>
                                                </td>
                                            </tr>
                                            <tr>
                                                <td style="font-weight: bold">effectivePeriod</td>
                                                <td>
                                                    <table>
                                                        <tr>
                                                            <td style="font-weight: bold">start</td>
                                                            <td>
                                                                <div title="start">2018-01-15</div>
                                                            </td>
                                                        </tr>
                                                        <tr>
                                                            <td style="font-weight: bold">end</td>
                                                            <td>
                                                                <div title="end">2018-01-30</div>
                                                            </td>
                                                        </tr>
                                                    </table>
                                                </td>
                                            </tr>
                                            <tr>
                                                <td style="font-weight: bold">component</td>
                                                <td>
                                                    <table>
                                                        <tr>
                                                            <td style="font-weight: bold">code</td>
                                                            <td>
                                                                <ul style="list-style:none; padding-left:0; margin:0 0;">
                                                                    <li>
                                                                        <ul style="list-style:none; padding-left:0; margin:0 0;">
                                                                            <li>
                                                                                <div title="display">Location</div> ( <div title="code">LOC</div> ) </li>
                                                                            <li>
                                                                                <div title="system">
                                                                                    <a href="http://terminology.hl7.org/CodeSystem/v3-ParticipationType"
                                                                                        >http://terminology.hl7.org/CodeSystem/v3-ParticipationType</a>
                                                                                </div>
                                                                            </li>
                                                                        </ul>
                                                                    </li>
                                                                </ul>
                                                            </td>
                                                        </tr>
                                                        <tr>
                                                            <td style="font-weight: bold">valueCodeableConcept</td>
                                                            <td>
                                                                <ul style="list-style:none; padding-left:0; margin:0 0;">
                                                                    <li>
                                                                        <ul style="list-style:none; padding-left:0; margin:0 0;">
                                                                            <li>
                                                                                <div title="display">Fiji</div> ( <div title="code">FJI</div> ) </li>
                                                                            <li>
                                                                                <div title="system">urn:iso:std:iso:3166</div>
                                                                            </li>
                                                                        </ul>
                                                                    </li>
                                                                </ul>
                                                            </td>
                                                        </tr>
                                                    </table>
                                                </td>
                                            </tr>
                                            <tr>
                                                <td style="font-weight: bold">component</td>
                                                <td>
                                                    <table>
                                                        <tr>
                                                            <td style="font-weight: bold">code</td>
                                                            <td>
                                                                <ul style="list-style:none; padding-left:0; margin:0 0;">
                                                                    <li>
                                                                        <ul style="list-style:none; padding-left:0; margin:0 0;">
                                                                            <li>
                                                                                <div title="display">Location</div> ( <div title="code">LOC</div> ) </li>
                                                                            <li>
                                                                                <div title="system">
                                                                                    <a href="http://terminology.hl7.org/CodeSystem/v3-ParticipationType"
                                                                                        >http://terminology.hl7.org/CodeSystem/v3-ParticipationType</a>
                                                                                </div>
                                                                            </li>
                                                                        </ul>
                                                                    </li>
                                                                </ul>
                                                            </td>
                                                        </tr>
                                                        <tr>
                                                            <td style="font-weight: bold">valueCodeableConcept</td>
                                                            <td>
                                                                <ul style="list-style:none; padding-left:0; margin:0 0;">
                                                                    <li>
                                                                        <ul style="list-style:none; padding-left:0; margin:0 0;">
                                                                            <li>
                                                                                <div title="display">Vanuatu</div> ( <div title="code">VUT</div> ) </li>
                                                                            <li>
                                                                                <div title="system">
                                                                                    <a href="https://phinvads.cdc.gov/vads/ViewCodeSystem.action?id=1.0.3166.1"
                                                                                        >https://phinvads.cdc.gov/vads/ViewCodeSystem.action?id=1.0.3166.1</a>
                                                                                </div>
                                                                            </li>
                                                                        </ul>
                                                                    </li>
                                                                </ul>
                                                            </td>
                                                        </tr>
                                                    </table>
                                                </td>
                                            </tr>
                                        </table>
                                    </td>
                                </tr>
                            </table>
                        </div>
                    </text>
                    <entry>
                        <reference value="Observation/observation-travel-history-eve-everywoman-201801" />
                        <display value="eICR Travel History: Eve Everywoman 2018-01" />
                    </entry>
                    <entry>
                        <reference value="Observation/observation-disability-status-eve-everywoman" />
                        <display value="US Public Health Disability Status Example" />
                    </entry>
                    <entry>
                        <reference value="Observation/observation-us-ph-exposure-contact-info-football-game" />
                        <display value="US Public Health Exposure Contact Information Example" />
                    </entry>
                    <entry>
                        <reference value="Observation/observation-country-of-nationality-eve-everywoman" />
                        <display value="Country of Nationality Observation Example" />
                    </entry>
                    <entry>
                        <reference value="Observation/observation-country-of-residence-eve-everywoman" />
                        <display value="Country of Residence Observation Example" />
                    </entry>
                </section>
                <section>
                    <title value="Pregnancy Section" />
                    <code>
                        <coding>
                            <system value="http://loinc.org" />
                            <code value="90767-5" />
                            <display value="Pregnancy summary Document" />
                        </coding>
                    </code>
                    <text>
                        <status value="generated" />
                        <div xmlns="http://www.w3.org/1999/xhtml">
                            <table>
                                <tr>
                                    <td style="font-weight: bold">title</td>
                                    <td>
                                        <div title="title">Pregnancy Section</div>
                                    </td>
                                </tr>
                                <tr>
                                    <td style="font-weight: bold">code</td>
                                    <td>
                                        <ul style="list-style:none; padding-left:0; margin:0 0;">
                                            <li>
                                                <ul style="list-style:none; padding-left:0; margin:0 0;">
                                                    <li>
                                                        <div title="display">Pregnancy summary Document</div> ( <div title="code">90767-5</div> ) </li>
                                                    <li>
                                                        <div title="system">
                                                            <a href="http://loinc.org">http://loinc.org</a>
                                                        </div>
                                                    </li>
                                                </ul>
                                            </li>
                                        </ul>
                                    </td>
                                </tr>
                                <tr>
                                    <td style="font-weight: bold">entry</td>
                                    <td>
                                        <a href="Observation-observation-pregnancy-status-eve-everywoman.html">eICR Pregnancy Status Example</a>
                                        <table>
                                            <tr>
                                                <td style="font-weight: bold">id</td>
                                                <td>
                                                    <div title="id">observation-pregnancy-status-eve-everywoman</div>
                                                </td>
                                            </tr>
                                            <tr>
                                                <td style="font-weight: bold">meta</td>
                                                <td>
                                                    <table>
                                                        <tr>
                                                            <td style="font-weight: bold">versionId</td>
                                                            <td>
                                                                <div title="versionId">13</div>
                                                            </td>
                                                        </tr>
                                                        <tr>
                                                            <td style="font-weight: bold">lastUpdated</td>
                                                            <td>
                                                                <div title="lastUpdated">2019-10-05T03:15:42.000-04:00</div>
                                                            </td>
                                                        </tr>
                                                        <tr>
                                                            <td style="font-weight: bold">profile</td>
                                                            <td>
                                                                <div title="profile">http://hl7.org/fhir/us/ecr/StructureDefinition/us-ph-pregnancy-status-observation</div>
                                                            </td>
                                                        </tr>
                                                    </table>
                                                </td>
                                            </tr>
                                            <tr>
                                                <td style="font-weight: bold">us-ph-date-recorded-extension</td>
                                                <td>
                                                    <ul style="list-style:none; padding-left:0; margin:0 0;">
                                                        <li>
                                                            <div title="valueDateTime">2017-10-01</div>
                                                        </li>
                                                    </ul>
                                                </td>
                                            </tr>
                                            <tr>
                                                <td style="font-weight: bold">date-determined-extension</td>
                                                <td>
                                                    <ul style="list-style:none; padding-left:0; margin:0 0;">
                                                        <li>
                                                            <div title="valueDateTime">2017-10-01</div>
                                                        </li>
                                                    </ul>
                                                </td>
                                            </tr>
                                            <tr>
                                                <td style="font-weight: bold">status</td>
                                                <td>
                                                    <div title="status">final</div>
                                                </td>
                                            </tr>
                                            <tr>
                                                <td style="font-weight: bold">code</td>
                                                <td>
                                                    <ul style="list-style:none; padding-left:0; margin:0 0;">
                                                        <li>
                                                            <ul style="list-style:none; padding-left:0; margin:0 0;">
                                                                <li>
                                                                    <div title="display">Pregnancy Status</div> ( <div title="code">82810-3</div> ) </li>
                                                                <li>
                                                                    <div title="system">
                                                                        <a href="http://loinc.org">http://loinc.org</a>
                                                                    </div>
                                                                </li>
                                                            </ul>
                                                        </li>
                                                    </ul>
                                                </td>
                                            </tr>
                                            <tr>
                                                <td style="font-weight: bold">subject</td>
                                                <td>
                                                    <ul style="list-style:none; padding-left:0; margin:0 0;">
                                                        <li />
                                                        <li>
                                                            <a href="Patient-patient-ecr-eve-everywoman.html">Eve Everywoman</a>
                                                        </li>
                                                    </ul>
                                                </td>
                                            </tr>
                                            <tr>
                                                <td style="font-weight: bold">effectivePeriod</td>
                                                <td>
                                                    <table>
                                                        <tr>
                                                            <td style="font-weight: bold">start</td>
                                                            <td>
                                                                <div title="start">2017-08-26</div>
                                                            </td>
                                                        </tr>
                                                    </table>
                                                </td>
                                            </tr>
                                            <tr>
                                                <td style="font-weight: bold">valueCodeableConcept</td>
                                                <td>
                                                    <ul style="list-style:none; padding-left:0; margin:0 0;">
                                                        <li>
                                                            <ul style="list-style:none; padding-left:0; margin:0 0;">
                                                                <li>
                                                                    <div title="display">Pregnancy (finding)</div> ( <div title="code">77386006</div> ) </li>
                                                                <li>
                                                                    <div title="system">
                                                                        <a href="http://snomed.info/sct">http://snomed.info/sct</a>
                                                                    </div>
                                                                </li>
                                                            </ul>
                                                        </li>
                                                    </ul>
                                                </td>
                                            </tr>
                                            <tr>
                                                <td style="font-weight: bold">method</td>
                                                <td>
                                                    <ul style="list-style:none; padding-left:0; margin:0 0;">
                                                        <li>
                                                            <ul style="list-style:none; padding-left:0; margin:0 0;">
                                                                <li>
                                                                    <div title="display">Ultrasonography (procedure)</div> ( <div title="code">16310003</div> ) </li>
                                                                <li>
                                                                    <div title="system">
                                                                        <a href="http://snomed.info/sct">http://snomed.info/sct</a>
                                                                    </div>
                                                                </li>
                                                            </ul>
                                                        </li>
                                                    </ul>
                                                </td>
                                            </tr>
                                            <tr>
                                                <td style="font-weight: bold">component</td>
                                                <td>
                                                    <table>
                                                        <tr>
                                                            <td style="font-weight: bold">date-determined-extension</td>
                                                            <td>
                                                                <ul style="list-style:none; padding-left:0; margin:0 0;">
                                                                    <li>
                                                                        <div title="valueDateTime">2017-10-01</div>
                                                                    </li>
                                                                </ul>
                                                            </td>
                                                        </tr>
                                                        <tr>
                                                            <td style="font-weight: bold">code</td>
                                                            <td>
                                                                <ul style="list-style:none; padding-left:0; margin:0 0;">
                                                                    <li>
                                                                        <ul style="list-style:none; padding-left:0; margin:0 0;">
                                                                            <li>
                                                                                <div title="display">Gestational age Estimated from patient reported estimated date of conception</div> ( <div title="code"
                                                                                    >53691-2</div> ) </li>
                                                                            <li>
                                                                                <div title="system">
                                                                                    <a href="http://loinc.org">http://loinc.org</a>
                                                                                </div>
                                                                            </li>
                                                                        </ul>
                                                                    </li>
                                                                </ul>
                                                            </td>
                                                        </tr>
                                                        <tr>
                                                            <td style="font-weight: bold">valueQuantity</td>
                                                            <td>
                                                                <ul style="list-style:none; padding-left:0; margin:0 0;">
                                                                    <li>
                                                                        <div title="value">143</div>
                                                                    </li>
                                                                    <li>
                                                                        <div title="unit">d</div>
                                                                    </li>
                                                                </ul>
                                                            </td>
                                                        </tr>
                                                    </table>
                                                </td>
                                            </tr>
                                            <tr>
                                                <td style="font-weight: bold">component</td>
                                                <td>
                                                    <table>
                                                        <tr>
                                                            <td style="font-weight: bold">date-determined-extension</td>
                                                            <td>
                                                                <ul style="list-style:none; padding-left:0; margin:0 0;">
                                                                    <li>
                                                                        <div title="valueDateTime">2017-10-01</div>
                                                                    </li>
                                                                </ul>
                                                            </td>
                                                        </tr>
                                                        <tr>
                                                            <td style="font-weight: bold">code</td>
                                                            <td>
                                                                <ul style="list-style:none; padding-left:0; margin:0 0;">
                                                                    <li>
                                                                        <ul style="list-style:none; padding-left:0; margin:0 0;">
                                                                            <li>
                                                                                <div title="display">Delivery date Estimated from date fundal height reaches umb</div> ( <div title="code">57064-8</div> ) </li>
                                                                            <li>
                                                                                <div title="system">
                                                                                    <a href="http://loinc.org">http://loinc.org</a>
                                                                                </div>
                                                                            </li>
                                                                        </ul>
                                                                    </li>
                                                                </ul>
                                                            </td>
                                                        </tr>
                                                        <tr>
                                                            <td style="font-weight: bold">valueDateTime</td>
                                                            <td>
                                                                <div title="valueDateTime">2018-05-01</div>
                                                            </td>
                                                        </tr>
                                                    </table>
                                                </td>
                                            </tr>
                                        </table>
                                    </td>
                                </tr>
                            </table>
                        </div>
                    </text>
                    <entry>
                        <reference value="Observation/observation-pregnancy-status-eve-everywoman" />
                        <display value="eICR Pregnancy Status Example" />
                    </entry>
                </section>
                <section>
                    <title value="Emergency Outbreak Information Section" />
                    <code>
                        <coding>
                            <system value="http://loinc.org" />
                            <code value="83910-0" />
                            <display value="Public health Note" />
                        </coding>
                    </code>
                    <text>
                        <status value="generated" />
                        <div xmlns="http://www.w3.org/1999/xhtml">
                            <table>
                                <tr>
                                    <td style="font-weight: bold">title</td>
                                    <td>
                                        <div title="title">Emergency Outbreak Information Section</div>
                                    </td>
                                </tr>
                                <tr>
                                    <td style="font-weight: bold">code</td>
                                    <td>
                                        <ul style="list-style:none; padding-left:0; margin:0 0;">
                                            <li>
                                                <ul style="list-style:none; padding-left:0; margin:0 0;">
                                                    <li>
                                                        <div title="display">Public health Note</div> ( <div title="code">83910-0</div> ) </li>
                                                    <li>
                                                        <div title="system">
                                                            <a href="http://loinc.org">http://loinc.org</a>
                                                        </div>
                                                    </li>
                                                </ul>
                                            </li>
                                        </ul>
                                    </td>
                                </tr>
                                <tr>
                                    <td style="font-weight: bold">entry</td>
                                    <td>
                                        <a href="Observation-observation-us-ph-emergency-outbreak-info-eve-everywoman.html">US Public Health Emergency Outbreak Information Example</a>
                                    </td>
                                </tr>
                            </table>
                        </div>
                    </text>
                    <entry>
                        <reference value="Observation/observation-us-ph-emergency-outbreak-info-eve-everywoman" />
                        <display value="US Public Health Emergency Outbreak Information Example" />
                    </entry>
                </section>
                <section>
                    <title value="Past Medical History Section" />
                    <code>
                        <coding>
                            <system value="http://loinc.org" />
                            <code value="11348-0" />
                            <display value="History of Past illness Narrative" />
                        </coding>
                    </code>
                    <text>
                        <status value="generated" />
                        <div xmlns="http://www.w3.org/1999/xhtml">
                            <table>
                                <tr>
                                    <td style="font-weight: bold">title</td>
                                    <td>
                                        <div title="title">Past Medical History Section</div>
                                    </td>
                                </tr>
                                <tr>
                                    <td style="font-weight: bold">code</td>
                                    <td>
                                        <ul style="list-style:none; padding-left:0; margin:0 0;">
                                            <li>
                                                <ul style="list-style:none; padding-left:0; margin:0 0;">
                                                    <li>
                                                        <div title="display">Past Medical History Narrative</div> ( <div title="code">11348-0</div> ) </li>
                                                    <li>
                                                        <div title="system">
                                                            <a href="http://loinc.org">http://loinc.org</a>
                                                        </div>
                                                    </li>
                                                </ul>
                                            </li>
                                        </ul>
                                    </td>
                                </tr>
                                <tr>
                                    <td class="text-no-entries" colspan="2" lang="en-US">
                                        <p>Past medical history</p>
                                    </td>
                                </tr>
                            </table>
                        </div>
                    </text>
                </section>
                <section>
                    <title value="Review of Systems Section" />
                    <code>
                        <coding>
                            <system value="http://loinc.org" />
                            <code value="10187-3" />
                            <display value="Review of systems Narrative - Reported" />
                        </coding>
                    </code>
                    <text>
                        <status value="generated" />
                        <div xmlns="http://www.w3.org/1999/xhtml">
                            <table>
                                <tr>
                                    <td style="font-weight: bold">title</td>
                                    <td>
                                        <div title="title">Review of Systems Section</div>
                                    </td>
                                </tr>
                                <tr>
                                    <td style="font-weight: bold">code</td>
                                    <td>
                                        <ul style="list-style:none; padding-left:0; margin:0 0;">
                                            <li>
                                                <ul style="list-style:none; padding-left:0; margin:0 0;">
                                                    <li>
                                                        <div title="display">Review of Systems Section Narrative</div> ( <div title="code">10187-3</div> ) </li>
                                                    <li>
                                                        <div title="system">
                                                            <a href="http://loinc.org">http://loinc.org</a>
                                                        </div>
                                                    </li>
                                                </ul>
                                            </li>
                                        </ul>
                                    </td>
                                </tr>
                                <tr>
                                    <td class="text-no-entries" colspan="2" lang="en-US">
                                        <p>Review of systems</p>
                                    </td>
                                </tr>
                            </table>
                        </div>
                    </text>
                </section>
            </Composition>
        </resource>
    </entry>
    <entry>
        <fullUrl value="http://example.org/fhir/MedicationAdministration/medicationadministration-eve-everywoman-azithromycin" />
        <resource>
            <MedicationAdministration>
                <id value="medicationadministration-eve-everywoman-azithromycin" />
                <meta>
                    <versionId value="6" />
                    <lastUpdated value="2021-08-17T07:53:28.598+00:00" />
                    <source value="#O8n4DNqcDuNHPfTJ" />
                    <profile value="http://hl7.org/fhir/us/ecr/StructureDefinition/us-ph-medicationadministration" />
                </meta>
                <status value="completed" />
                <medicationCodeableConcept>
                    <coding>
                        <system value="http://www.nlm.nih.gov/research/umls/rxnorm" />
                        <code value="248656" />
                        <display value="Azithromycin 500 MG Oral Tablet" />
                    </coding>
                    <text value="Azithromycin 500 MG Oral Tablet" />
                </medicationCodeableConcept>
                <subject>
                    <reference value="Patient/patient-ecr-eve-everywoman" />
                    <display value="Eve Everywoman" />
                </subject>
                <effectivePeriod>
                    <start value="2018-03-07" />
                    <end value="2018-03-07" />
                </effectivePeriod>
                <dosage>
                    <text value="Two tablets at once" />
                    <route>
                        <coding>
                            <system value="http://snomed.info/sct" />
                            <code value="26643006" />
                            <display value="Oral route" />
                        </coding>
                    </route>
                    <method>
                        <coding>
                            <system value="http://snomed.info/sct" />
                            <code value="421521009" />
                            <display value="Swallow - dosing instruction imperative (qualifier value)" />
                        </coding>
                    </method>
                    <dose>
                        <value value="2" />
                        <unit value="TAB" />
                        <system value="http://terminology.hl7.org/CodeSystem/v3-orderableDrugForm" />
                        <code value="TAB" />
                    </dose>
                </dosage>
            </MedicationAdministration>
        </resource>
    </entry>
    <entry>
        <fullUrl value="http://example.org/fhir/Procedure/us-ph-procedure-ecmo" />
        <resource>
            <Procedure>
                <id value="us-ph-procedure-ecmo" />
                <meta>
                    <versionId value="5" />
                    <lastUpdated value="2021-06-28T08:12:56.829+00:00" />
                    <source value="#A9FdbPgUT95j7Itd" />
                    <profile value="http://hl7.org/fhir/us/ecr/StructureDefinition/eicr-procedure" />
                </meta>
                <identifier>
                    <system value="urn:ietf:rfc:3986" />
                    <value value="urn:uuid:b2a737f2-2fdb-49c1-b097-dac173d07afd" />
                </identifier>
                <status value="completed" />
                <code>
                    <coding>
                        <system value="http://snomed.info/sct" />
                        <code value="233573008" />
                        <display value="Extracorporeal membrane oxygenation (procedure)" />
                    </coding>
                    <text value="Extracorporeal membrane oxygenation (procedure)" />
                </code>
                <subject>
                    <reference value="Patient/patient-ecr-eve-everywoman" />
                </subject>
                <performedPeriod>
                    <start value="2020-11-01T12:55:26-07:00" />
                    <end value="2020-11-01T13:25:26-07:00" />
                </performedPeriod>
                <focalDevice>
                    <manipulated>
                        <reference value="Device/device-ecmo" />
                    </manipulated>
                </focalDevice>
            </Procedure>
        </resource>
    </entry>
    <entry>
        <fullUrl value="http://example.org/fhir/MedicationAdministration/medicationadministration-eve-everywoman-naloxone-response" />
        <resource>
            <MedicationAdministration>
                <id value="medicationadministration-eve-everywoman-naloxone-response" />
                <meta>
                    <versionId value="5" />
                    <lastUpdated value="2021-08-17T07:53:28.597+00:00" />
                    <source value="#5sOf7BOr595JpyG7" />
                    <profile value="http://hl7.org/fhir/us/ecr/StructureDefinition/us-ph-medicationadministration" />
                </meta>
                <extension url="http://hl7.org/fhir/us/ecr/StructureDefinition/us-ph-therapeutic-medication-response-extension">
                    <valueCodeableConcept>
                        <coding>
                            <system value="http://snomed.info/sct" />
                            <code value="268910001" />
                            <display value="Patient's condition improved (finding)" />
                        </coding>
                    </valueCodeableConcept>
                </extension>
                <status value="completed" />
                <medicationCodeableConcept>
                    <coding>
                        <system value="http://www.nlm.nih.gov/research/umls/rxnorm" />
                        <code value="1659929" />
                        <display value="1 ML naloxone hydrochloride 0.4 MG/ML Injection" />
                    </coding>
                </medicationCodeableConcept>
                <subject>
                    <reference value="Patient/patient-ecr-eve-everywoman" />
                    <display value="Eve Everywoman" />
                </subject>
                <effectivePeriod>
                    <start value="2018-03-07" />
                    <end value="2018-03-07" />
                </effectivePeriod>
                <dosage>
                    <route>
                        <coding>
                            <system value="http://snomed.info/sct" />
                            <code value="206007" />
                            <display value="Gluteus maximus muscle" />
                        </coding>
                    </route>
                    <method>
                        <coding>
                            <system value="http://snomed.info/sct" />
                            <code value="422145002" />
                            <display value="Inject - dosing instruction imperative (qualifier value)" />
                        </coding>
                    </method>
                    <dose>
                        <value value="1" />
                        <unit value="mL" />
                        <system value="http://unitsofmeasure.org" />
                        <code value="mL" />
                    </dose>
                </dosage>
            </MedicationAdministration>
        </resource>
    </entry>
    <entry>
        <fullUrl value="http://example.org/fhir/ServiceRequest/servicerequest-eicr-zika" />
        <resource>
            <ServiceRequest>
                <id value="servicerequest-eicr-zika" />
                <meta>
                    <versionId value="5" />
                    <lastUpdated value="2021-08-17T08:02:21.928+00:00" />
                    <source value="#w4zRDqhjQ9EZHgCs" />
                    <profile value="http://hl7.org/fhir/us/ecr/StructureDefinition/eicr-servicerequest" />
                </meta>
                <identifier>
                    <system value="http://lab.smarthealthit.org" />
                    <value value="061ef612-344f-4e7b-81a8-1059ae7bbe19" />
                </identifier>
                <status value="completed" />
                <intent value="order" />
                <category>
                    <coding>
                        <system value="http://snomed.info/sct" />
                        <code value="103693007" />
                        <display value="Diagnostic procedure (procedure)" />
                    </coding>
                    <text value="Diagnostics Procedure" />
                </category>
                <code>
                    <coding>
                        <system value="http://loinc.org" />
                        <code value="80825-3" />
                        <display value="Zika virus envelope E gene [Presence] in Serum by NAA with probe detection" />
                    </coding>
                    <text value="Zika RT-PCR" />
                </code>
                <subject>
                    <reference value="Patient/patient-ecr-eve-everywoman" />
                    <display value="Eve Everywoman" />
                </subject>
                <performer>
                    <reference value="Organization/organization-ecr-acme-laboratory" />
                    <display value="Acme Labs" />
                </performer>
            </ServiceRequest>
        </resource>
    </entry>
    <entry>
        <fullUrl value="http://example.org/fhir/Condition/condition-eicr-eve-everywoman-common-cold" />
        <resource>
            <Condition>
                <id value="condition-eicr-eve-everywoman-common-cold" />
                <meta>
                    <versionId value="6" />
                    <lastUpdated value="2021-07-15T01:54:14.831+00:00" />
                    <source value="#4g0ZpTNqldHFYLzr" />
                    <profile value="http://hl7.org/fhir/us/ecr/StructureDefinition/us-ph-condition" />
                </meta>
                <category>
                    <coding>
                        <system value="http://terminology.hl7.org/CodeSystem/condition-category" />
                        <code value="problem-list-item" />
                        <display value="Problem List Item" />
                    </coding>
                </category>
                <code>
                    <coding>
                        <system value="http://snomed.info/sct" />
                        <code value="82272006" />
                        <display value="Common cold (disorder)" />
                    </coding>
                </code>
                <subject>
                    <reference value="Patient/patient-ecr-eve-everywoman" />
                    <display value="Eve Everywoman" />
                </subject>
                <onsetDateTime value="2017-09-23" />
                <asserter>
                    <reference value="Practitioner/practitioner-us-core-henry-seven" />
                    <display value="Henry Seven, MD" />
                </asserter>
            </Condition>
        </resource>
    </entry>
    <entry>
        <fullUrl value="http://example.org/fhir/Encounter/encounter-eicr-eve-everywoman-outpatient" />
        <resource>
            <Encounter>
                <id value="encounter-eicr-eve-everywoman-outpatient" />
                <meta>
                    <versionId value="5" />
                    <lastUpdated value="2021-07-19T03:02:05.806+00:00" />
                    <source value="#Q5dlT8eND2UI2D6e" />
                    <profile value="http://hl7.org/fhir/us/ecr/StructureDefinition/eicr-encounter" />
                </meta>
                <identifier>
                    <system value="http://hospital.smarthealthit.org" />
                    <value value="9937012" />
                </identifier>
                <status value="finished" />
                <class>
                    <system value="http://terminology.hl7.org/CodeSystem/v3-ActCode" />
                    <code value="AMB" />
                    <display value="ambulatory" />
                </class>
                <type>
                    <coding>
                        <system value="http://www.ama-assn.org/go/cpt" />
                        <code value="99202" />
                    </coding>
                    <text value="Office Visit" />
                </type>
                <subject>
                    <reference value="Patient/patient-ecr-eve-everywoman" />
                    <display value="Eve Everywoman" />
                </subject>
                <participant>
                    <type>
                        <coding>
                            <system value="http://terminology.hl7.org/CodeSystem/v3-ParticipationType" />
                            <code value="ATND" />
                            <display value="attender" />
                        </coding>
                    </type>
                    <individual>
                        <reference value="PractitionerRole/practitionerrole-henry-seven" />
                        <display value="Henry Seven, MD" />
                    </individual>
                </participant>
                <period>
                    <start value="2018-04-01T10:00:00-05:00" />
                    <end value="2018-04-02T10:15:00-05:00" />
                </period>
                <diagnosis>
                    <extension url="http://hl7.org/fhir/us/ecr/StructureDefinition/eicr-trigger-code-flag-extension">
                        <extension url="triggerCodeValueSet">
                            <valueOid value="urn:oid:2.16.840.1.114222.4.11.7508" />
                        </extension>
                        <extension url="triggerCodeValueSetVersion">
                            <valueString value="12/12/2018" />
                        </extension>
                        <extension url="triggerCode">
                            <valueCoding>
                                <system value="http://snomed.info/sct" />
                                <code value="3928002" />
                                <display value="Zika virus disease (disorder)" />
                            </valueCoding>
                        </extension>
                    </extension>
                    <condition>
                        <reference value="Condition/condition-eicr-eve-everywoman-zika" />
                    </condition>
                </diagnosis>
                <diagnosis>
                    <condition>
                        <reference value="Condition/condition-eicr-eve-everywoman-common-cold" />
                    </condition>
                </diagnosis>
                <location>
                    <location>
                        <reference value="Location/location-ecr-salem-medical-center" />
                        <display value="Clinic Bldg A, Salem Medical Center, 4646 Brown Rd, Salem, MA 02368" />
                    </location>
                </location>
                <serviceProvider>
                    <reference value="Organization/organization-ecr-salem-medical-center" />
                    <display value="Salem Medical Center, 22222 Health Authority Drive, Ann Arbor MI, 99999" />
                </serviceProvider>
            </Encounter>
        </resource>
    </entry>
    <entry>
        <fullUrl value="http://example.org/fhir/Observation/observation-pregnancy-status-eve-everywoman" />
        <resource>
            <Observation>
                <id value="observation-pregnancy-status-eve-everywoman" />
                <meta>
                    <versionId value="8" />
                    <lastUpdated value="2021-08-17T07:59:00.824+00:00" />
                    <source value="#bBlVx7OsNPsZVCbu" />
                    <profile value="http://hl7.org/fhir/us/ecr/StructureDefinition/us-ph-pregnancy-status-observation" />
                </meta>
                <extension url="http://hl7.org/fhir/us/ecr/StructureDefinition/us-ph-date-recorded-extension">
                    <valueDateTime value="2017-10-01" />
                </extension>
                <extension url="http://hl7.org/fhir/us/ecr/StructureDefinition/us-ph-date-determined-extension">
                    <valueDateTime value="2017-10-01" />
                </extension>
                <status value="final" />
                <code>
                    <coding>
                        <system value="http://loinc.org" />
                        <code value="82810-3" />
                        <display value="Pregnancy status" />
                    </coding>
                </code>
                <subject>
                    <reference value="Patient/patient-ecr-eve-everywoman" />
                    <display value="Eve Everywoman" />
                </subject>
                <effectivePeriod>
                    <start value="2017-08-26" />
                </effectivePeriod>
                <valueCodeableConcept>
                    <coding>
                        <system value="http://snomed.info/sct" />
                        <code value="77386006" />
                        <display value="Pregnancy (finding)" />
                    </coding>
                </valueCodeableConcept>
                <method>
                    <coding>
                        <system value="http://snomed.info/sct" />
                        <code value="16310003" />
                        <display value="Ultrasonography (procedure)" />
                    </coding>
                </method>
                <component>
                    <extension url="http://hl7.org/fhir/us/ecr/StructureDefinition/us-ph-date-determined-extension">
                        <valueDateTime value="2017-10-01" />
                    </extension>
                    <code>
                        <coding>
                            <system value="http://loinc.org" />
                            <code value="53691-2" />
                            <display value="Gestational age Estimated from patient reported estimated date of conception" />
                        </coding>
                    </code>
                    <valueQuantity>
                        <value value="143" />
                        <unit value="d" />
                    </valueQuantity>
                </component>
                <component>
                    <extension url="http://hl7.org/fhir/us/ecr/StructureDefinition/us-ph-date-determined-extension">
                        <valueDateTime value="2017-10-01" />
                    </extension>
                    <code>
                        <coding>
                            <system value="http://loinc.org" />
                            <code value="57064-8" />
                            <display value="Delivery date Estimated from date fundal height reaches umb" />
                        </coding>
                    </code>
                    <valueDateTime value="2018-05-01" />
                </component>
            </Observation>
        </resource>
    </entry>
    <entry>
        <fullUrl value="http://example.org/fhir/Observation/observation-vaccine-credential-assertion-eve-everywoman" />
        <resource>
            <Observation>
                <id value="observation-vaccine-credential-assertion-eve-everywoman" />
                <meta>
                    <versionId value="2" />
                    <lastUpdated value="2021-08-13T04:25:18.607+00:00" />
                    <source value="#12yO2DqhRxbXmEOy" />
                    <profile value="http://hl7.org/fhir/us/ecr/StructureDefinition/eicr-vaccine-credential-patient-assertion" />
                </meta>
                <status value="final" />
                <code>
                    <coding>
                        <system value="http://loinc.org" />
                        <code value="11370-4" />
                        <display value="Immunization status - Reported" />
                    </coding>
                </code>
                <subject>
                    <reference value="Patient/patient-ecr-eve-everywoman" />
                    <display value="Eve Everywoman" />
                </subject>
                <effectiveDateTime value="2020-11-10T22:33:22Z" />
                <valueCodeableConcept>
                    <coding>
                        <system value="http://terminology.hl7.org/CodeSystem/v2-0532" />
                        <code value="Y" />
                        <display value="Yes" />
                    </coding>
                </valueCodeableConcept>
            </Observation>
        </resource>
    </entry>
    <entry>
        <fullUrl value="http://example.org/fhir/Observation/observation-us-ph-emergency-outbreak-info-eve-everywoman" />
        <resource>
            <Observation>
                <id value="observation-us-ph-emergency-outbreak-info-eve-everywoman" />
                <meta>
                    <versionId value="4" />
                    <lastUpdated value="2021-07-15T01:22:52.178+00:00" />
                    <source value="#oAXhG2HyvbL70uEB" />
                    <profile value="http://hl7.org/fhir/us/ecr/StructureDefinition/us-ph-emergency-outbreak-information" />
                </meta>
                <status value="final" />
                <code>
                    <text value="Employee desk distance from mail sorter" />
                </code>
                <subject>
                    <reference value="Patient/patient-ecr-eve-everywoman" />
                    <display value="Eve Everywoman" />
                </subject>
                <effectiveDateTime value="2020-11-18T22:33:22Z" />
                <valueQuantity>
                    <value value="2" />
                    <unit value="m" />
                </valueQuantity>
            </Observation>
        </resource>
    </entry>
    <entry>
        <fullUrl value="http://example.org/fhir/Observation/observation-country-of-nationality-eve-everywoman" />
        <resource>
            <Observation xmlns="http://hl7.org/fhir">
                <id value="observation-country-of-nationality-eve-everywoman" />
                <meta>
                    <versionId value="1" />
                    <lastUpdated value="2021-08-19T21:30:49.456+00:00" />
                    <source value="#ABFWLRjmURVC23y1" />
                    <profile value="http://hl7.org/fhir/us/ecr/StructureDefinition/eicr-country-of-nationality" />
                </meta>
                <status value="final" />
                <code>
                    <coding>
                        <system value="http://snomed.info/sct" />
                        <code value="186034007" />
                        <display value="Ethnicity / related nationality data (observable entity)" />
                    </coding>
                </code>
                <subject>
                    <reference value="Patient/patient-ecr-eve-everywoman" />
                    <display value="Eve Everywoman" />
                </subject>
                <effectiveDateTime value="2020-11-10T22:33:22Z" />
                <valueCodeableConcept>
                    <coding>
                        <system value="urn:iso:std:iso:3166" />
                        <code value="AU" />
                        <display value="Australia" />
                    </coding>
                </valueCodeableConcept>
            </Observation>
        </resource>
    </entry>
    <entry>
        <fullUrl value="http://example.org/fhir/Patient/patient-ecr-eve-everywoman" />
        <resource>
            <Patient>
                <id value="patient-ecr-eve-everywoman" />
                <meta>
                    <versionId value="10" />
                    <lastUpdated value="2021-08-17T08:00:32.356+00:00" />
                    <source value="#zjFlzHDvZIYVyMAB" />
                    <profile value="http://hl7.org/fhir/us/ecr/StructureDefinition/us-ph-patient" />
                </meta>
                <text>
                    <status value="generated" />
                    <div xmlns="http://www.w3.org/1999/xhtml">
                        <div class="hapiHeaderText">Eve L <b>EVERYWOMAN </b>
                        </div>
                        <table class="hapiPropertyTable">
                            <tbody>
                                <tr>
                                    <td>Identifier</td>
                                    <td>1032702</td>
                                </tr>
                                <tr>
                                    <td>Address</td>
                                    <td>
                                        <span>5101 Peachtree St NE </span>
                                        <br />
                                        <span>Atlanta </span>
                                        <span>GA </span>
                                        <span>US </span>
                                    </td>
                                </tr>
                                <tr>
                                    <td>Date of birth</td>
                                    <td>
                                        <span>24 November 1974</span>
                                    </td>
                                </tr>
                            </tbody>
                        </table>
                    </div>
                </text>
                <extension url="http://hl7.org/fhir/us/core/StructureDefinition/us-core-race">
                    <extension url="ombCategory">
                        <valueCoding>
                            <system value="urn:oid:2.16.840.1.113883.6.238" />
                            <code value="2106-3" />
                            <display value="White" />
                        </valueCoding>
                    </extension>
                    <extension url="text">
                        <valueString value="White" />
                    </extension>
                </extension>
                <extension url="http://hl7.org/fhir/us/core/StructureDefinition/us-core-ethnicity">
                    <extension url="ombCategory">
                        <valueCoding>
                            <system value="urn:oid:2.16.840.1.113883.6.238" />
                            <code value="2186-5" />
                            <display value="Not Hispanic or Latino" />
                        </valueCoding>
                    </extension>
                    <extension url="text">
                        <valueString value="Not Hispanic or Latino" />
                    </extension>
                </extension>
                <extension url="http://hl7.org/fhir/us/core/StructureDefinition/us-core-birthsex">
                    <valueCode value="F" />
                </extension>
                <extension url="http://hl7.org/fhir/us/ecr/StructureDefinition/us-ph-genderidentity-extension">
                    <extension url="value">
                        <valueCodeableConcept>
                            <coding>
                                <system value="http://terminology.hl7.org/CodeSystem/v3-NullFlavor" />
                                <code value="ASKU" />
                                <display value="asked but unknown" />
                            </coding>
                            <text value="asked but unknown" />
                        </valueCodeableConcept>
                    </extension>
                </extension>
                <extension url="http://hl7.org/fhir/us/ecr/StructureDefinition/us-ph-tribal-affiliation-extension">
                    <extension url="TribeName">
                        <valueCoding>
                            <system value="http://terminology.hl7.org/CodeSystem/v3-TribalEntityUS" />
                            <code value="91" />
                            <display value="Fort Mojave Indian Tribe of Arizona, California &amp; Nevada" />
                        </valueCoding>
                    </extension>
                    <extension url="EnrolledTribeMember">
                        <valueBoolean value="true" />
                    </extension>
                </extension>
                <identifier>
                    <use value="usual" />
                    <type>
                        <coding>
                            <system value="http://terminology.hl7.org/CodeSystem/v2-0203" />
                            <code value="MR" />
                            <display value="Medical Record Number" />
                        </coding>
                    </type>
                    <system value="http://hospital.smarthealthit.org" />
                    <value value="1032702" />
                </identifier>
                <active value="true" />
                <name>
                    <family value="Everywoman" />
                    <given value="Eve" />
                    <given value="L" />
                </name>
                <telecom>
                    <system value="phone" />
                    <value value="1-(404)555-1212" />
                    <use value="home" />
                </telecom>
                <telecom>
                    <system value="email" />
                    <value value="eve.everywoman@example.com" />
                </telecom>
                <gender value="female" />
                <birthDate value="1974-11-24" />
                <deceasedBoolean value="false" />
                <address>
                    <line value="5101 Peachtree St NE" />
                    <city value="Atlanta" />
                    <state value="GA" />
                    <postalCode value="30302" />
                    <country value="US" />
                </address>
                <communication>
                    <language>
                        <coding>
                            <system value="urn:ietf:bcp:47" />
                            <code value="en" />
                            <display value="English" />
                        </coding>
                    </language>
                </communication>
            </Patient>
        </resource>
    </entry>
    <entry>
        <fullUrl value="http://example.org/fhir/Immunization/immunization-ecr-pneumo" />
        <resource>
            <Immunization>
                <id value="immunization-ecr-pneumo" />
                <meta>
                    <versionId value="8" />
                    <lastUpdated value="2021-08-17T07:51:35.117+00:00" />
                    <source value="#EdjaILZHXKHi4bdN" />
                    <profile value="http://hl7.org/fhir/us/core/StructureDefinition/us-core-immunization" />
                </meta>
                <status value="completed" />
                <vaccineCode>
                    <coding>
                        <system value="http://hl7.org/fhir/sid/cvx" />
                        <code value="33" />
                        <display value="pneumococcal polysaccharide PPV23" />
                    </coding>
                </vaccineCode>
                <patient>
                    <reference value="Patient/patient-ecr-eve-everywoman" />
                    <display value="Eve Everywoman" />
                </patient>
                <occurrenceDateTime value="2018-09-01" />
                <primarySource value="true" />
            </Immunization>
        </resource>
    </entry>
    <entry>
        <fullUrl value="http://example.org/fhir/Observation/observation-country-of-residence-eve-everywoman" />
        <resource>
            <Observation>
                <id value="observation-country-of-residence-eve-everywoman" />
                <meta>
                    <versionId value="1" />
                    <lastUpdated value="2021-08-13T00:20:14.025+00:00" />
                    <source value="#HDoLJzr0kfWKFp3F" />
                    <profile value="http://hl7.org/fhir/us/ecr/StructureDefinition/eicr-country-of-residence" />
                </meta>
                <status value="final" />
                <code>
                    <coding>
                        <system value="http://loinc.org" />
                        <code value="77983-5" />
                        <display value="Country of usual residence" />
                    </coding>
                </code>
                <subject>
                    <reference value="Patient/patient-ecr-eve-everywoman" />
                    <display value="Eve Everywoman" />
                </subject>
                <effectiveDateTime value="2020-11-10T22:33:22Z" />
                <valueCodeableConcept>
                    <coding>
                        <system value="urn:iso:std:iso:3166" />
                        <code value="GB" />
                        <display value="United Kingdom of Great Britain and Northern Ireland" />
                    </coding>
                </valueCodeableConcept>
            </Observation>
        </resource>
    </entry>
    <entry>
        <fullUrl value="http://example.org/fhir/PractitionerRole/practitionerrole-henry-seven" />
        <resource>
            <PractitionerRole>
                <id value="practitionerrole-henry-seven" />
                <meta>
                    <versionId value="11" />
                    <lastUpdated value="2021-08-17T08:00:32.355+00:00" />
                    <source value="#KJ942UxvfdYWoHCF" />
                    <profile value="http://hl7.org/fhir/us/ecr/StructureDefinition/us-ph-practitionerrole" />
                </meta>
                <identifier>
                    <system value="http://hl7.org/fhir/sid/us-npi" />
                    <value value="9941339108" />
                </identifier>
                <practitioner>
                    <reference value="Practitioner/practitioner-us-core-henry-seven" />
                    <display value="Henry Seven, MD" />
                </practitioner>
                <organization>
                    <reference value="Organization/organization-ecr-salem-medical-center" />
                    <display value="Salem Medical Center" />
                </organization>
                <code>
                    <coding>
                        <system value="http://nucc.org/provider-taxonomy" />
                        <code value="261QP2300X" />
                        <display value="Primary Care Clinic/Center" />
                    </coding>
                </code>
                <specialty>
                    <coding>
                        <system value="http://snomed.info/sct" />
                        <code value="419772000" />
                        <display value="Family practice" />
                    </coding>
                </specialty>
                <location>
                    <reference value="Location/location-ecr-salem-medical-center" />
                    <display value="Salem Medical Center" />
                </location>
                <telecom>
                    <system value="email" />
                    <value value="henry.seven@example.com" />
                </telecom>
            </PractitionerRole>
        </resource>
    </entry>
    <entry>
        <fullUrl value="http://example.org/fhir/Observation/observation-blood-pressure-eve-everywoman" />
        <resource>
            <Observation>
                <id value="observation-blood-pressure-eve-everywoman" />
                <meta>
                    <versionId value="2" />
                    <lastUpdated value="2021-07-19T08:19:31.753+00:00" />
                    <source value="#2PjceWUbU0gCYVZA" />
                    <profile value="http://hl7.org/fhir/us/core/StructureDefinition/us-core-blood-pressure" />
                </meta>
                <status value="final" />
                <category>
                    <coding>
                        <system value="http://terminology.hl7.org/CodeSystem/observation-category" />
                        <code value="vital-signs" />
                        <display value="Vital Signs" />
                    </coding>
                    <text value="Vital Signs" />
                </category>
                <code>
                    <coding>
                        <system value="http://loinc.org" />
                        <code value="85354-9" />
                        <display value="Blood pressure panel with all children optional" />
                    </coding>
                    <text value="Blood pressure systolic and diastolic" />
                </code>
                <subject>
                    <reference value="Patient/patient-ecr-eve-everywoman" />
                    <display value="Eve Everywoman" />
                </subject>
                <encounter>
                    <display value="GP Visit" />
                </encounter>
                <effectiveDateTime value="2020-07-02" />
                <component>
                    <code>
                        <coding>
                            <system value="http://loinc.org" />
                            <code value="8480-6" />
                            <display value="Systolic blood pressure" />
                        </coding>
                        <text value="Systolic blood pressure" />
                    </code>
                    <valueQuantity>
                        <value value="109" />
                        <unit value="mmHg" />
                        <system value="http://unitsofmeasure.org" />
                        <code value="mm[Hg]" />
                    </valueQuantity>
                </component>
                <component>
                    <code>
                        <coding>
                            <system value="http://loinc.org" />
                            <code value="8462-4" />
                            <display value="Diastolic blood pressure" />
                        </coding>
                        <text value="Diastolic blood pressure" />
                    </code>
                    <valueQuantity>
                        <value value="44" />
                        <unit value="mmHg" />
                        <system value="http://unitsofmeasure.org" />
                        <code value="mm[Hg]" />
                    </valueQuantity>
                </component>
            </Observation>
        </resource>
    </entry>
    <entry>
        <fullUrl value="http://example.org/fhir/Observation/observation-us-ph-exposure-contact-info-football-game" />
        <resource>
            <Observation>
                <id value="observation-us-ph-exposure-contact-info-football-game" />
                <meta>
                    <versionId value="4" />
                    <lastUpdated value="2020-12-01T07:17:32.073+00:00" />
                    <source value="#pMvWUdCWz4XOnrDf" />
                    <profile value="http://hl7.org/fhir/us/ecr/StructureDefinition/us-ph-exposure-contact-information" />
                </meta>
                <status value="final" />
                <category>
                    <coding>
                        <system value="http://terminology.hl7.org/CodeSystem/v3-ActClass" />
                        <code value="EXPOS" />
                        <display value="exposure" />
                    </coding>
                    <text
                        value="An interaction between entities that provides opportunity for transmission of a physical, chemical, or biological agent from an exposure source entity to an exposure target entity."
                     />
                </category>
                <code>
                    <coding>
                        <system value="http://terminology.hl7.org/CodeSystem/umls" />
                        <code value="C3841750" />
                        <display value="Mass gathering" />
                    </coding>
                    <text value="Mass gathering (football game)" />
                </code>
                <subject>
                    <reference value="Patient/patient-ecr-eve-everywoman" />
                    <display value="Eve Everywoman" />
                </subject>
                <focus>
                    <reference value="Location/location-ecr-city-football-stadium" />
                    <display value="City Football Stadium" />
                </focus>
                <effectivePeriod>
                    <start value="2020-01-11T18:00:00Z" />
                    <end value="2020-01-11T21:30:00Z" />
                </effectivePeriod>
                <valueCodeableConcept>
                    <coding>
                        <system value="http://snomed.info/sct" />
                        <code value="264379009" />
                        <display value="Sports stadium (environment)" />
                    </coding>
                    <text value="City Football Stadium" />
                </valueCodeableConcept>
            </Observation>
        </resource>
    </entry>
    <entry>
        <fullUrl value="http://example.org/fhir/Observation/observation-travel-history-eve-everywoman-201801" />
        <resource>
            <Observation>
                <id value="observation-travel-history-eve-everywoman-201801" />
                <meta>
                    <versionId value="9" />
                    <lastUpdated value="2021-08-17T07:59:01.126+00:00" />
                    <source value="#d6PrWfFFuxUIiLtX" />
                    <profile value="http://hl7.org/fhir/us/ecr/StructureDefinition/us-ph-travel-history" />
                </meta>
                <status value="final" />
                <code>
                    <coding>
                        <system value="http://snomed.info/sct" />
                        <code value="420008001" />
                        <display value="Travel" />
                    </coding>
                    <text value="Travel History" />
                </code>
                <subject>
                    <reference value="Patient/patient-ecr-eve-everywoman" />
                    <display value="Eve Everywoman" />
                </subject>
                <effectivePeriod>
                    <start value="2018-01-15" />
                    <end value="2018-01-30" />
                </effectivePeriod>
                <component>
                    <code>
                        <coding>
                            <system value="http://terminology.hl7.org/CodeSystem/v3-ParticipationType" />
                            <code value="LOC" />
                            <display value="Location" />
                        </coding>
                    </code>
                    <valueCodeableConcept>
                        <coding>
                            <system value="urn:iso:std:iso:3166" />
                            <code value="FJI" />
                            <display value="Fiji" />
                        </coding>
                    </valueCodeableConcept>
                </component>
                <component>
                    <code>
                        <coding>
                            <system value="http://terminology.hl7.org/CodeSystem/v3-ParticipationType" />
                            <code value="LOC" />
                            <display value="Location" />
                        </coding>
                    </code>
                    <valueCodeableConcept>
                        <coding>
                            <system value="urn:oid:1.0.3166.1" />
                            <code value="VUT" />
                            <display value="Vanuatu" />
                        </coding>
                    </valueCodeableConcept>
                </component>
                <component>
                    <code>
                        <coding>
                            <system value="http://snomed.info/sct" />
                            <code value="280147009" />
                            <display value="Type of activity (attribute)" />
                        </coding>
                    </code>
                    <valueCodeableConcept>
                        <coding>
                            <system value="http://snomed.info/sct" />
                            <code value="702348006" />
                            <display value="Active duty military (occupation)" />
                        </coding>
                    </valueCodeableConcept>
                </component>
            </Observation>
        </resource>
    </entry>
    <entry>
        <fullUrl value="http://example.org/fhir/Observation/observation-disability-status-eve-everywoman" />
        <resource>
            <Observation>
                <id value="observation-disability-status-eve-everywoman" />
                <meta>
                    <versionId value="2" />
                    <lastUpdated value="2021-06-30T05:33:12.487+00:00" />
                    <source value="#AVCvf6gXu6hyNuWr" />
                    <profile value="http://hl7.org/fhir/us/ecr/StructureDefinition/us-ph-disability-status" />
                </meta>
                <status value="final" />
                <code>
                    <coding>
                        <system value="http://loinc.org" />
                        <code value="69856-3" />
                        <display value="Are you deaf, or do you have serious difficulty hearing" />
                    </coding>
                </code>
                <subject>
                    <reference value="Patient/patient-ecr-eve-everywoman" />
                    <display value="Eve Everywoman" />
                </subject>
                <effectiveDateTime value="2020-11-10T22:33:22Z" />
                <valueBoolean value="true" />
            </Observation>
        </resource>
    </entry>
    <entry>
        <fullUrl value="http://example.org/fhir/Observation/observation-us-ph-lab-result-eve-everywoman-lymphocytes" />
        <resource>
            <Observation xmlns="http://hl7.org/fhir">
                <id value="observation-us-ph-lab-result-eve-everywoman-lymphocytes" />
                <meta>
                    <profile value="http://hl7.org/fhir/us/ecr/StructureDefinition/us-ph-lab-result-observation" />
                </meta>
                <status value="final" />
                <category>
                    <coding>
                        <system value="http://terminology.hl7.org/CodeSystem/observation-category" />
                        <code value="laboratory" />
                        <display value="Laboratory" />
                    </coding>
                    <text value="Laboratory" />
                </category>
                <code>
                    <coding>
                        <system value="http://loinc.org" />
                        <code value="731-0" />
                        <display value="Lymphocytes [#/volume] in Blood by Automated count" />
                    </coding>
                </code>
                <subject>
                    <reference value="Patient/patient-ecr-eve-everywoman" />
                    <display value="Eve Everywoman" />
                </subject>
                <effectiveDateTime value="2018-03-07" />
                <valueQuantity>
                    <value value="5.2" />
                    <system value="http://unitsofmeasure.org" />
                    <code value="10*3/uL" />
                </valueQuantity>
                <interpretation>
                    <coding>
                        <system value="http://terminology.hl7.org/CodeSystem/v3-ObservationInterpretation" />
                        <code value="H" />
                        <display value="High" />
                    </coding>
                </interpretation>
                <referenceRange>
                    <low>
                        <value value="1" />
                        <system value="http://unitsofmeasure.org" />
                        <code value="10*3/uL" />
                    </low>
                    <high>
                        <value value="4.8" />
                        <system value="http://unitsofmeasure.org" />
                        <code value="10*3/uL" />
                    </high>
                </referenceRange>
            </Observation>
        </resource>
    </entry>
    <entry>
        <fullUrl value="http://example.org/fhir/Organization/organization-ecr-acme-laboratory" />
        <resource>
            <Organization>
                <id value="organization-ecr-acme-laboratory" />
                <meta>
                    <versionId value="4" />
                    <lastUpdated value="2021-06-30T04:13:19.329+00:00" />
                    <source value="#xp7CXcY2lPaNsDQL" />
                    <profile value="http://hl7.org/fhir/us/ecr/StructureDefinition/us-ph-organization" />
                </meta>
                <identifier>
                    <system value="http://hl7.org.fhir/sid/us-npi" />
                    <value value="1144221999" />
                </identifier>
                <active value="true" />
                <type>
                    <coding>
                        <system value="http://terminology.hl7.org/CodeSystem/v3-RoleCode" />
                        <code value="OUTLAB" />
                        <display value="outpatient laboratory" />
                    </coding>
                </type>
                <name value="Acme_Labs" />
                <telecom>
                    <system value="phone" />
                    <value value="+1-555-555-4444" />
                </telecom>
                <telecom>
                    <system value="email" />
                    <value value="mail@acme-labs.com" />
                </telecom>
                <address>
                    <line value="7777 Laboratory Drive" />
                    <city value="Ann Arbor" />
                    <state value="MI" />
                    <postalCode value="99999" />
                </address>
            </Organization>
        </resource>
    </entry>
    <entry>
        <fullUrl value="http://example.org/fhir/Location/location-ecr-salem-medical-center" />
        <resource>
            <Location>
                <id value="location-ecr-salem-medical-center" />
                <meta>
                    <versionId value="6" />
                    <lastUpdated value="2021-08-17T07:53:02.099+00:00" />
                    <source value="#VI2Nm5Ps5HqZ5HXV" />
                    <profile value="http://hl7.org/fhir/us/ecr/StructureDefinition/us-ph-location" />
                </meta>
                <identifier>
                    <system value="http://hl7.org.fhir/sid/us-npi" />
                    <value value="1144221995" />
                </identifier>
                <status value="active" />
                <name value="Clinic Bldg A, Salem Medical Center" />
                <type>
                    <coding>
                        <system value="http://terminology.hl7.org/CodeSystem/v3-RoleCode" />
                        <code value="HOSP" />
                        <display value="Hospital" />
                    </coding>
                </type>
                <telecom>
                    <system value="phone" />
                    <value value="(+1) (555)555-3001" />
                </telecom>
                <telecom>
                    <system value="fax" />
                    <value value="(+1) (555)555-3002" />
                </telecom>
                <telecom>
                    <system value="email" />
                    <value value="mail@smc.org" />
                </telecom>
                <address>
                    <line value="Clinic Bldg A" />
                    <line value="4444 Healthcare Drive" />
                    <city value="Ann Arbor" />
                    <state value="MI" />
                    <postalCode value="99999" />
                </address>
                <managingOrganization>
                    <reference value="Organization/organization-ecr-salem-medical-center" />
                </managingOrganization>
            </Location>
        </resource>
    </entry>
    <entry>
        <fullUrl value="http://example.org/fhir/Location/location-ecr-city-football-stadium" />
        <resource>
            <Location xmlns="http://hl7.org/fhir">
                <id value="location-ecr-city-football-stadium" />
                <meta>
                    <versionId value="1" />
                    <lastUpdated value="2020-12-01T01:55:32.705+00:00" />
                    <source value="#KLUFk4w6CXKqrFEC" />
                    <profile value="http://hl7.org/fhir/us/core/StructureDefinition/us-core-location" />
                </meta>
                <status value="active" />
                <name value="City Football Stadium" />
                <type>
                    <coding>
                        <system value="http://snomed.info/sct" />
                        <code value="264379009" />
                        <display value="Sports stadium (environment)" />
                    </coding>
                    <text value="City Football Stadium" />
                </type>
                <address>
                    <line value="99 Football Stadium Road" />
                    <city value="My City" />
                    <state value="AZ" />
                    <postalCode value="8562" />
                </address>
            </Location>
        </resource>
    </entry>
    <entry>
        <fullUrl value="http://example.org/fhir/Organization/organization-ecr-salem-medical-center" />
        <resource>
            <Organization>
                <id value="organization-ecr-salem-medical-center" />
                <meta>
                    <versionId value="5" />
                    <lastUpdated value="2021-06-30T04:13:19.345+00:00" />
                    <source value="#xa4yJZjn68xVavoM" />
                    <profile value="http://hl7.org/fhir/us/ecr/StructureDefinition/us-ph-organization" />
                </meta>
                <identifier>
                    <system value="http://hl7.org.fhir/sid/us-npi" />
                    <value value="55555555" />
                </identifier>
                <active value="true" />
                <name value="Salem Medical Center" />
                <telecom>
                    <system value="phone" />
                    <value value="+1-555-555-1111" />
                </telecom>
                <telecom>
                    <system value="email" />
                    <value value="mail@salemmedicalcenter.com" />
                </telecom>
                <address>
                    <line value="22222 Health Authority Drive" />
                    <city value="Ann Arbor" />
                    <state value="MI" />
                    <postalCode value="99999" />
                </address>
            </Organization>
        </resource>
    </entry>
    <entry>
        <fullUrl value="http://example.org/fhir/Condition/condition-eicr-eve-everywoman-zika" />
        <resource>
            <Condition>
                <id value="condition-eicr-eve-everywoman-zika" />
                <meta>
                    <versionId value="5" />
                    <lastUpdated value="2021-07-15T01:54:14.835+00:00" />
                    <source value="#rM2Pw6getjoE2UTV" />
                </meta>
                <category>
                    <coding>
                        <system value="http://terminology.hl7.org/CodeSystem/condition-category" />
                        <code value="encounter-diagnosis" />
                        <display value="Encounter Diagnosis" />
                    </coding>
                </category>
                <code>
                    <coding>
                        <system value="http://snomed.info/sct" />
                        <code value="3928002" />
                        <display value="Zika virus disease (disorder)" />
                    </coding>
                </code>
                <subject>
                    <reference value="Patient/patient-ecr-eve-everywoman" />
                    <display value="Eve Everywoman" />
                </subject>
                <onsetDateTime value="2017-08-23" />
                <asserter>
                    <reference value="Practitioner/practitioner-us-core-henry-seven" />
                    <display value="Henry Seven, MD" />
                </asserter>
            </Condition>
        </resource>
    </entry>
    <entry>
        <fullUrl value="http://example.org/fhir/Practitioner/practitioner-us-core-henry-seven" />
        <resource>
            <Practitioner>
                <id value="practitioner-us-core-henry-seven" />
                <meta>
                    <versionId value="5" />
                    <lastUpdated value="2021-08-17T08:00:32.356+00:00" />
                    <source value="#2MfA6kIjmOmtAlIb" />
                    <profile value="http://hl7.org/fhir/us/core/StructureDefinition/us-core-practitioner" />
                </meta>
                <identifier>
                    <system value="http://hl7.org/fhir/sid/us-npi" />
                    <value value="9941339108" />
                </identifier>
                <name>
                    <family value="Henry" />
                    <given value="Seven" />
                    <suffix value="M.D." />
                </name>
                <telecom>
                    <system value="email" />
                    <value value="henry.seven@example.com" />
                </telecom>
                <address>
                    <line value="BMass Doctors" />
                    <line value="2100 North Ave" />
                    <city value="Burlington" />
                    <state value="MA" />
                    <postalCode value="02368" />
                    <country value="US" />
                </address>
            </Practitioner>
        </resource>
    </entry>
    <entry>
        <fullUrl value="http://example.org/fhir/Device/device-ecmo" />
        <resource>
            <Device xmlns="http://hl7.org/fhir">
                <id value="device-ecmo" />
                <meta>
                    <versionId value="3" />
                    <lastUpdated value="2021-06-30T07:22:44.658+00:00" />
                    <source value="#WUV2SWqz3ej775gd" />
                </meta>
                <text>
                    <status value="generated" />
                    <div xmlns="http://www.w3.org/1999/xhtml">
                        <p>
                            <b>Manually Created Narrative</b>
                        </p>
                        <h3>UDI</h3>
                        <p>
                            <b>Device Identifier</b>: 99863313444317 </p>
                        <p>
                            <b>CarrierHRF</b>: (01)99863313444316(17)220101(10)M320(21)AC222 </p>
                        <p>
                            <b>EntryType</b>: rfid </p>
                        <p>
                            <b>Name</b>: ACME Extracorporeal membrane oxygenator </p>
                        <p>
                            <b>Type</b>: udi-label-name </p>
                        <p>
                            <b>status</b>: active </p>
                        <p>
                            <b>manufacturer</b>: ACME Biomedical </p>
                        <p>
                            <b>expirationDate</b>: 2024-01-01 </p>
                        <p>
                            <b>lotNumber</b>: M321 </p>
                        <p>
                            <b>serialNumber</b>: AC222 </p>
                        <p>
                            <b>modelNumber</b>: 4.0 </p>
                        <p>
                            <b>patient</b>: <a href="Patient-patient-ecr-eve-everywoman.html">Eve Everywoman. Generated Summary: Medical Record Number: 1032702 (USUAL); active; Eve L Everywoman ; Phone:
                                1-(404)555-1212, eve.everywoman@example.com; gender: female; birthDate: 1974-11-24</a>
                        </p>
                    </div>
                </text>
                <udiCarrier>
                    <deviceIdentifier value="99863313444316" />
                    <carrierHRF value="(01)99863313444316(17)220101(10)M320(21)AC222" />
                    <entryType value="rfid" />
                </udiCarrier>
                <status value="active" />
                <manufacturer value="ACME Biomedical" />
                <expirationDate value="2022-01-01" />
                <lotNumber value="M320" />
                <serialNumber value="AC222" />
                <deviceName>
                    <name value="ACME Extracorporeal membrane oxygenator" />
                    <type value="udi-label-name" />
                </deviceName>
                <modelNumber value="4.0" />
                <type>
                    <coding>
                        <system value="http://snomed.info/sct" />
                        <code value="469244005" />
                        <display value="Extracorporeal membrane oxygenator (physical object)" />
                    </coding>
                    <text value="Extracorporeal membrane oxygenator (physical object)" />
                </type>
                <patient>
                    <reference value="Patient/patient-ecr-eve-everywoman" />
                    <display value="Eve Everywoman" />
                </patient>
            </Device>
        </resource>
    </entry>
</Bundle>
