<?xml version="1.0" encoding="UTF-8"?>
<Bundle
    xmlns="http://hl7.org/fhir">
    <id value="bundle-ecr-message-zika"/>
    <meta>
        <versionId value="4"/>
        <lastUpdated value="2020-11-17T06:18:29.338+00:00"/>
        <source value="#22Z3B056fzcNoH4Y"/>
        <profile value="http://hl7.org/fhir/us/ecr/StructureDefinition/ecr-message-bundle"/>
    </meta>
    <identifier>
        <system value="urn:ietf:rfc:3986"/>
        <value value="urn:uuid:0c3eec0b-145b-4694-a1b8-1ea4de5a0cb0"/>
    </identifier>
    <type value="message"/>
    <entry>
        <fullUrl value="MessageHeader/messageheader-ecr-requested-eicr"/>
        <resource>
            <MessageHeader>
                <id value="messageheader-ecr-requested-eicr"/>
                <text>
                    <status value="generated"/>
                    <div
                        xmlns="http://www.w3.org/1999/xhtml">
                        <table
                            xmlns:xsl="http://www.w3.org/1999/XSL/Transform">
                            <tr>
                                <td style="font-weight: bold">id</td>
                                <td>
                                    <div title="id">messageheader-ecr-requested-eicr</div>
                                </td>
                            </tr>
                            <tr>
                                <td style="font-weight: bold">meta</td>
                                <td>
                                    <table>
                                        <tr>
                                            <td style="font-weight: bold">versionId</td>
                                            <td>
                                                <div title="versionId">7</div>
                                            </td>
                                        </tr>
                                        <tr>
                                            <td style="font-weight: bold">lastUpdated</td>
                                            <td>
                                                <div title="lastUpdated">2019-10-05T01:19:11.000-04:00</div>
                                            </td>
                                        </tr>
                                        <tr>
                                            <td style="font-weight: bold">profile</td>
                                            <td>
                                                <div title="profile">http://hl7.org/fhir/us/ecr/StructureDefinition/ecr-messageheader</div>
                                            </td>
                                        </tr>
                                        <tr>
                                            <td style="font-weight: bold">tag</td>
                                            <td>
                                                <table>
                                                    <tr>
                                                        <td style="font-weight: bold">system</td>
                                                        <td>
                                                            <div title="system">
                                                                <a href="http://terminology.hl7.org/CodeSystem/v3-ObservationValue">http://terminology.hl7.org/CodeSystem/v3-ObservationValue</a>
                                                            </div>
                                                        </td>
                                                    </tr>
                                                    <tr>
                                                        <td style="font-weight: bold">code</td>
                                                        <td>
                                                            <div title="code">SUBSETTED</div>
                                                        </td>
                                                    </tr>
                                                    <tr>
                                                        <td style="font-weight: bold">display</td>
                                                        <td>
                                                            <div title="display">subsetted</div>
                                                        </td>
                                                    </tr>
                                                </table>
                                            </td>
                                        </tr>
                                    </table>
                                </td>
                            </tr>
                            <tr>
                                <td style="font-weight: bold">eventCoding</td>
                                <td>
                                    <table>
                                        <tr>
                                            <td style="font-weight: bold">system</td>
                                            <td>
                                                <div title="system">
                                                    <a href="CodeSystem-codesystem-messageHeader-event.html">http://hl7.org/fhir/us/ecr/CodeSystem/codesystem-messageHeader-event</a>
                                                </div>
                                            </td>
                                        </tr>
                                        <tr>
                                            <td style="font-weight: bold">code</td>
                                            <td>
                                                <div title="code">process-eicr</div>
                                            </td>
                                        </tr>
                                        <tr>
                                            <td style="font-weight: bold">display</td>
                                            <td>
                                                <div title="display">Process eICR</div>
                                            </td>
                                        </tr>
                                    </table>
                                </td>
                            </tr>
                            <tr>
                                <td style="font-weight: bold">destination</td>
                                <td>
                                    <table>
                                        <tr>
                                            <td style="font-weight: bold">name</td>
                                            <td>
                                                <div title="name">YMCA Acme Message Gateway</div>
                                            </td>
                                        </tr>
                                        <tr>
                                            <td style="font-weight: bold">target</td>
                                            <td>
                                                <ul style="list-style:none; padding-left:0; margin:0 0;">
                                                    <li>
                                                        <a href="Device-device-ecr-software-ymca.html">Device/device-ecr-software-ymca</a>
                                                    </li>
                                                </ul>
                                            </td>
                                        </tr>
                                        <tr>
                                            <td style="font-weight: bold">endpoint</td>
                                            <td>
                                                <div title="endpoint">http://example.org/ymca/fhir</div>
                                            </td>
                                        </tr>
                                    </table>
                                </td>
                            </tr>
                            <tr>
                                <td style="font-weight: bold">sender</td>
                                <td>
                                    <ul style="list-style:none; padding-left:0; margin:0 0;">
                                        <li>
                                            <a href="Organization-organization-ecr-salem-medical-center.html">Organization/organization-ecr-salem-medical-center</a>
                                        </li>
                                    </ul>
                                </td>
                            </tr>
                            <tr>
                                <td style="font-weight: bold">source</td>
                                <td>
                                    <table>
                                        <tr>
                                            <td style="font-weight: bold">name</td>
                                            <td>
                                                <div title="name">Acme Central Patient Registry</div>
                                            </td>
                                        </tr>
                                        <tr>
                                            <td style="font-weight: bold">software</td>
                                            <td>
                                                <div title="software">FooBar Patient Manager</div>
                                            </td>
                                        </tr>
                                        <tr>
                                            <td style="font-weight: bold">version</td>
                                            <td>
                                                <div title="version">3.1.45.AABB</div>
                                            </td>
                                        </tr>
                                        <tr>
                                            <td style="font-weight: bold">contact</td>
                                            <td>
                                                <table>
                                                    <tr>
                                                        <td style="font-weight: bold">system</td>
                                                        <td>
                                                            <div title="system">phone</div>
                                                        </td>
                                                    </tr>
                                                    <tr>
                                                        <td style="font-weight: bold">value</td>
                                                        <td>
                                                            <div title="value">+1 (555) 123 4567</div>
                                                        </td>
                                                    </tr>
                                                </table>
                                            </td>
                                        </tr>
                                        <tr>
                                            <td style="font-weight: bold">endpoint</td>
                                            <td>
                                                <div title="endpoint">http://example.org/salem-medical-center/fhir</div>
                                            </td>
                                        </tr>
                                    </table>
                                </td>
                            </tr>
                            <tr>
                                <td style="font-weight: bold">focus</td>
                                <td>
                                    <ul style="list-style:none; padding-left:0; margin:0 0;">
                                        <li>
                                            <a href="Task-task-ecr-ehr-requested-eicr.html">Task/task-ecr-ehr-requested-eicr</a>
                                        </li>
                                    </ul>
                                </td>
                            </tr>
                        </table>
                    </div>
                </text>
                <eventCoding>
                    <system value="http://hl7.org/fhir/us/ecr/CodeSystem/codesystem-messageHeader-event"/>
                    <code value="process-eicr"/>
                    <display value="Process eICR"/>
                </eventCoding>
                <destination>
                    <name value="YMCA Acme Message Gateway"/>
                    <target>
                        <reference value="Device/device-ecr-software-ymca"/>
                    </target>
                    <endpoint value="http://example.org/ymca/fhir"/>
                </destination>
                <sender>
                    <reference value="Organization/organization-ecr-salem-medical-center"/>
                </sender>
                <source>
                    <name value="Acme Central Patient Registry"/>
                    <software value="FooBar Patient Manager"/>
                    <version value="3.1.45.AABB"/>
                    <contact>
                        <system value="phone"/>
                        <value value="+1 (555) 123 4567"/>
                    </contact>
                    <endpoint value="http://example.org/salem-medical-center/fhir"/>
                </source>
                <focus>
                    <reference value="Task/task-ecr-ehr-requested-eicr"/>
                </focus>
            </MessageHeader>
        </resource>
    </entry>
    <entry>
        <fullUrl value="Task/task-ecr-ehr-requested-eicr"/>
        <resource>
            <Task>
                <id value="task-ecr-ehr-requested-eicr"/>
                <text>
                    <status value="generated"/>
                    <div
                        xmlns="http://www.w3.org/1999/xhtml">
                        <table
                            xmlns:xsl="http://www.w3.org/1999/XSL/Transform">
                            <tr>
                                <td style="font-weight: bold">id</td>
                                <td>
                                    <div title="id">task-ecr-ehr-requested-eicr</div>
                                </td>
                            </tr>
                            <tr>
                                <td style="font-weight: bold">meta</td>
                                <td>
                                    <table>
                                        <tr>
                                            <td style="font-weight: bold">versionId</td>
                                            <td>
                                                <div title="versionId">9</div>
                                            </td>
                                        </tr>
                                        <tr>
                                            <td style="font-weight: bold">lastUpdated</td>
                                            <td>
                                                <div title="lastUpdated">2019-10-05T03:15:42.000-04:00</div>
                                            </td>
                                        </tr>
                                        <tr>
                                            <td style="font-weight: bold">profile</td>
                                            <td>
                                                <div title="profile">http://hl7.org/fhir/us/ecr/StructureDefinition/ecr-task</div>
                                            </td>
                                        </tr>
                                    </table>
                                </td>
                            </tr>
                            <tr>
                                <td style="font-weight: bold">status</td>
                                <td>
                                    <div title="status">requested</div>
                                </td>
                            </tr>
                            <tr>
                                <td style="font-weight: bold">businessStatus</td>
                                <td>
                                    <ul style="list-style:none; padding-left:0; margin:0 0;">
                                        <li>
                                            <ul style="list-style:none; padding-left:0; margin:0 0;">
                                                <li>
                                                    <div title="display">Send eICR</div>  (
                                                    
                                                    
                                                    <div title="code">sent-eicr</div> )
                        
                                                
                                                
                                                </li>
                                                <li>
                                                    <div title="system">
                                                        <a href="CodeSystem-codesystem-task-businessStatus.html">http://hl7.org/fhir/us/ecr/CodeSystem/codesystem-task-businessStatus</a>
                                                    </div>
                                                </li>
                                            </ul>
                                        </li>
                                    </ul>
                                </td>
                            </tr>
                            <tr>
                                <td style="font-weight: bold">intent</td>
                                <td>
                                    <div title="intent">order</div>
                                </td>
                            </tr>
                            <tr>
                                <td style="font-weight: bold">focus</td>
                                <td>
                                    <ul style="list-style:none; padding-left:0; margin:0 0;">
                                        <li>
                                            <a href="Bundle-bundle-eicr-document-zika.html">Bundle/bundle-eicr-document-zika</a>
                                        </li>
                                    </ul>
                                </td>
                            </tr>
                            <tr>
                                <td style="font-weight: bold">authoredOn</td>
                                <td>
                                    <div title="authoredOn">2019-05-04T14:43:32-04:00</div>
                                </td>
                            </tr>
                            <tr>
                                <td style="font-weight: bold">owner</td>
                                <td>
                                    <ul style="list-style:none; padding-left:0; margin:0 0;">
                                        <li>
                                            <a href="Organization-organization-ecr-ymca-center.html">Organization/organization-ecr-ymca-center</a>
                                        </li>
                                    </ul>
                                </td>
                            </tr>
                        </table>
                    </div>
                </text>
                <status value="requested"/>
                <businessStatus>
                    <coding>
                        <system value="http://hl7.org/fhir/us/ecr/CodeSystem/codesystem-task-businessStatus"/>
                        <code value="sent-eicr"/>
                        <display value="Send eICR"/>
                    </coding>
                </businessStatus>
                <intent value="order"/>
                <focus>
                    <reference value="Bundle/bundle-eicr-document-zika"/>
                </focus>
                <authoredOn value="2019-05-04T14:43:32-04:00"/>
                <owner>
                    <reference value="Organization/organization-ecr-ymca-center"/>
                </owner>
            </Task>
        </resource>
    </entry>
    <entry>
        <fullUrl value="Device/device-ecr-software-ymca"/>
        <resource>
            <Device>
                <id value="device-ecr-software-ymca"/>
                <text>
                    <status value="generated"/>
                    <div
                        xmlns="http://www.w3.org/1999/xhtml">
                        <table
                            xmlns:xsl="http://www.w3.org/1999/XSL/Transform">
                            <tr>
                                <td style="font-weight: bold">id:
                </td>
                                <td>
                                    <div title="id">device-ecr-software-ymca</div>
                                </td>
                            </tr>
                            <tr>
                                <td style="font-weight: bold">meta:
                </td>
                                <td>
                                    <ul style="list-style:none; padding-left:0; margin:0 0;">
                                        <li>
                                            <div title="versionId">4</div>
                                        </li>
                                        <li>
                                            <div title="lastUpdated">2019-10-03T05:07:48.000-04:00</div>
                                        </li>
                                    </ul>
                                </td>
                            </tr>
                            <tr>
                                <td style="font-weight: bold">identifier:
                </td>
                                <td>
                                    <ul style="list-style:none; padding-left:0; margin:0 0;">
                                        <li>
                                            <div title="system">
                                                <a href="http://acme.com/software/client-ids">http://acme.com/software/client-ids</a>
                                            </div>
                                        </li>
                                        <li>
                                            <div title="value">goodhealth_id</div>
                                        </li>
                                    </ul>
                                </td>
                            </tr>
                            <tr>
                                <td style="font-weight: bold">manufacturer:
                </td>
                                <td>
                                    <div title="manufacturer">Acme Devices, Inc</div>
                                </td>
                            </tr>
                            <tr>
                                <td style="font-weight: bold">type:
                </td>
                                <td>
                                    <div title="text">EHR</div>
                                </td>
                            </tr>
                            <tr>
                                <td style="font-weight: bold">version:
                </td>
                                <td>
                                    <table>
                                        <tr>
                                            <td style="font-weight: bold">value:
                      </td>
                                            <td>
                                                <div title="value">10.23-23423</div>
                                            </td>
                                        </tr>
                                    </table>
                                </td>
                            </tr>
                            <tr>
                                <td style="font-weight: bold">contact:
                </td>
                                <td>
                                    <ul style="list-style:none; padding-left:0; margin:0 0;">
                                        <li>
                                            <div title="system">url</div>
                                        </li>
                                        <li>
                                            <div title="value">http://acme.com</div>
                                        </li>
                                    </ul>
                                </td>
                            </tr>
                            <tr>
                                <td style="font-weight: bold">url:
                </td>
                                <td>
                                    <div title="url">http://acme.com/ymca/software/</div>
                                </td>
                            </tr>
                        </table>
                    </div>
                </text>
                <identifier>
                    <system value="http://acme.com/software/client-ids"/>
                    <value value="goodhealth_id"/>
                </identifier>
                <manufacturer value="Acme Devices, Inc"/>
                <type>
                    <text value="EHR"/>
                </type>
                <version>
                    <value value="10.23-23423"/>
                </version>
                <contact>
                    <system value="url"/>
                    <value value="http://acme.com"/>
                </contact>
                <url value="http://acme.com/ymca/software/"/>
            </Device>
        </resource>
    </entry>
    <entry>
        <fullUrl value="Organization/organization-ecr-salem-medical-center"/>
        <resource>
            <Organization>
                <id value="organization-ecr-salem-medical-center"/>
                <text>
                    <status value="generated"/>
                    <div
                        xmlns="http://www.w3.org/1999/xhtml">
                        <table
                            xmlns:xsl="http://www.w3.org/1999/XSL/Transform">
                            <tr>
                                <td style="font-weight: bold">id</td>
                                <td>
                                    <div title="id">organization-ecr-salem-medical-center</div>
                                </td>
                            </tr>
                            <tr>
                                <td style="font-weight: bold">meta</td>
                                <td>
                                    <table>
                                        <tr>
                                            <td style="font-weight: bold">versionId</td>
                                            <td>
                                                <div title="versionId">16</div>
                                            </td>
                                        </tr>
                                        <tr>
                                            <td style="font-weight: bold">lastUpdated</td>
                                            <td>
                                                <div title="lastUpdated">2019-10-05T03:15:41.000-04:00</div>
                                            </td>
                                        </tr>
                                        <tr>
                                            <td style="font-weight: bold">profile</td>
                                            <td>
                                                <div title="profile">http://hl7.org/fhir/us/ecr/StructureDefinition/us-ph-organization</div>
                                            </td>
                                        </tr>
                                    </table>
                                </td>
                            </tr>
                            <tr>
                                <td style="font-weight: bold">identifier</td>
                                <td>
                                    <ul style="list-style:none; padding-left:0; margin:0 0;">
                                        <li>
                                            <div title="system">
                                                <a href="http://hl7.org.fhir/sid/us-npi">http://hl7.org.fhir/sid/us-npi</a>
                                            </div>
                                        </li>
                                        <li>
                                            <div title="value">55555555</div>
                                        </li>
                                    </ul>
                                </td>
                            </tr>
                            <tr>
                                <td style="font-weight: bold">active</td>
                                <td>
                                    <div title="active">true</div>
                                </td>
                            </tr>
                            <tr>
                                <td style="font-weight: bold">type</td>
                                <td>
                                    <ul style="list-style:none; padding-left:0; margin:0 0;">
                                        <li>
                                            <ul style="list-style:none; padding-left:0; margin:0 0;">
                                                <li>
                                                    <div title="display">Outpatient facility</div>  (
                                                    
                                                    
                                                    <div title="code">OF</div> )
                        
                                                
                                                
                                                </li>
                                                <li>
                                                    <div title="system">
                                                        <a href="http://terminology.hl7.org/CodeSystem/v3-RoleCode">http://terminology.hl7.org/CodeSystem/v3-RoleCode</a>
                                                    </div>
                                                </li>
                                            </ul>
                                        </li>
                                    </ul>
                                </td>
                            </tr>
                            <tr>
                                <td style="font-weight: bold">name</td>
                                <td>
                                    <div title="name">Salem Medical Center</div>
                                </td>
                            </tr>
                            <tr>
                                <td style="font-weight: bold">telecom</td>
                                <td>
                                    <table>
                                        <tr>
                                            <td style="font-weight: bold">system</td>
                                            <td>
                                                <div title="system">phone</div>
                                            </td>
                                        </tr>
                                        <tr>
                                            <td style="font-weight: bold">value</td>
                                            <td>
                                                <div title="value">+1-555-555-1111</div>
                                            </td>
                                        </tr>
                                    </table>
                                </td>
                            </tr>
                            <tr>
                                <td style="font-weight: bold">telecom</td>
                                <td>
                                    <table>
                                        <tr>
                                            <td style="font-weight: bold">system</td>
                                            <td>
                                                <div title="system">email</div>
                                            </td>
                                        </tr>
                                        <tr>
                                            <td style="font-weight: bold">value</td>
                                            <td>
                                                <div title="value">mail@salemmedicalcenter.com</div>
                                            </td>
                                        </tr>
                                    </table>
                                </td>
                            </tr>
                            <tr>
                                <td style="font-weight: bold">address</td>
                                <td>
                                    <table>
                                        <tr>
                                            <td style="font-weight: bold">line</td>
                                            <td>
                                                <div title="line">22222 Health Authority Drive</div>
                                            </td>
                                        </tr>
                                        <tr>
                                            <td style="font-weight: bold">city</td>
                                            <td>
                                                <div title="city">Ann Arbor</div>
                                            </td>
                                        </tr>
                                        <tr>
                                            <td style="font-weight: bold">state</td>
                                            <td>
                                                <div title="state">MI</div>
                                            </td>
                                        </tr>
                                        <tr>
                                            <td style="font-weight: bold">postalCode</td>
                                            <td>
                                                <div title="postalCode">99999</div>
                                            </td>
                                        </tr>
                                    </table>
                                </td>
                            </tr>
                        </table>
                    </div>
                </text>
                <identifier>
                    <system value="http://hl7.org.fhir/sid/us-npi"/>
                    <value value="55555555"/>
                </identifier>
                <active value="true"/>
                <type>
                    <coding>
                        <system value="http://terminology.hl7.org/CodeSystem/v3-RoleCode"/>
                        <code value="OF"/>
                        <display value="Outpatient facility"/>
                    </coding>
                </type>
                <name value="Salem Medical Center"/>
                <telecom>
                    <system value="phone"/>
                    <value value="+1-555-555-1111"/>
                </telecom>
                <telecom>
                    <system value="email"/>
                    <value value="mail@salemmedicalcenter.com"/>
                </telecom>
                <address>
                    <line value="22222 Health Authority Drive"/>
                    <city value="Ann Arbor"/>
                    <state value="MI"/>
                    <postalCode value="99999"/>
                </address>
            </Organization>
        </resource>
    </entry>
    <entry>
        <fullUrl value="Organization/organization-ecr-ymca-center"/>
        <resource>
            <Organization>
                <id value="organization-ecr-ymca-center"/>
                <text>
                    <status value="generated"/>
                    <div
                        xmlns="http://www.w3.org/1999/xhtml">
                        <table
                            xmlns:xsl="http://www.w3.org/1999/XSL/Transform">
                            <tr>
                                <td style="font-weight: bold">id</td>
                                <td>
                                    <div title="id">organization-ecr-ymca-center</div>
                                </td>
                            </tr>
                            <tr>
                                <td style="font-weight: bold">meta</td>
                                <td>
                                    <table>
                                        <tr>
                                            <td style="font-weight: bold">versionId</td>
                                            <td>
                                                <div title="versionId">9</div>
                                            </td>
                                        </tr>
                                        <tr>
                                            <td style="font-weight: bold">lastUpdated</td>
                                            <td>
                                                <div title="lastUpdated">2019-10-23T13:56:36.000-04:00</div>
                                            </td>
                                        </tr>
                                        <tr>
                                            <td style="font-weight: bold">profile</td>
                                            <td>
                                                <div title="profile">http://hl7.org/fhir/us/ecr/StructureDefinition/us-ph-organization</div>
                                            </td>
                                        </tr>
                                    </table>
                                </td>
                            </tr>
                            <tr>
                                <td style="font-weight: bold">identifier</td>
                                <td>
                                    <ul style="list-style:none; padding-left:0; margin:0 0;">
                                        <li>
                                            <div title="system">
                                                <a href="http://hl7.org.fhir/sid/us-npi">http://hl7.org.fhir/sid/us-npi</a>
                                            </div>
                                        </li>
                                        <li>
                                            <div title="value">7777788</div>
                                        </li>
                                    </ul>
                                </td>
                            </tr>
                            <tr>
                                <td style="font-weight: bold">active</td>
                                <td>
                                    <div title="active">true</div>
                                </td>
                            </tr>
                            <tr>
                                <td style="font-weight: bold">type</td>
                                <td>
                                    <ul style="list-style:none; padding-left:0; margin:0 0;">
                                        <li>
                                            <ul style="list-style:none; padding-left:0; margin:0 0;">
                                                <li>
                                                    <div title="display">Outpatient facility</div>  (
                                                    
                                                    
                                                    <div title="code">OF</div> )
                        
                                                
                                                
                                                </li>
                                                <li>
                                                    <div title="system">
                                                        <a href="http://terminology.hl7.org/CodeSystem/v3-RoleCode">http://terminology.hl7.org/CodeSystem/v3-RoleCode</a>
                                                    </div>
                                                </li>
                                            </ul>
                                        </li>
                                    </ul>
                                </td>
                            </tr>
                            <tr>
                                <td style="font-weight: bold">name</td>
                                <td>
                                    <div title="name">YMCA</div>
                                </td>
                            </tr>
                            <tr>
                                <td style="font-weight: bold">telecom</td>
                                <td>
                                    <table>
                                        <tr>
                                            <td style="font-weight: bold">system</td>
                                            <td>
                                                <div title="system">phone</div>
                                            </td>
                                        </tr>
                                        <tr>
                                            <td style="font-weight: bold">value</td>
                                            <td>
                                                <div title="value">+1-555-555-7777</div>
                                            </td>
                                        </tr>
                                    </table>
                                </td>
                            </tr>
                            <tr>
                                <td style="font-weight: bold">telecom</td>
                                <td>
                                    <table>
                                        <tr>
                                            <td style="font-weight: bold">system</td>
                                            <td>
                                                <div title="system">email</div>
                                            </td>
                                        </tr>
                                        <tr>
                                            <td style="font-weight: bold">value</td>
                                            <td>
                                                <div title="value">mail@ymca.com</div>
                                            </td>
                                        </tr>
                                    </table>
                                </td>
                            </tr>
                            <tr>
                                <td style="font-weight: bold">address</td>
                                <td>
                                    <table>
                                        <tr>
                                            <td style="font-weight: bold">line</td>
                                            <td>
                                                <div title="line">22222 Health Authority Drive</div>
                                            </td>
                                        </tr>
                                        <tr>
                                            <td style="font-weight: bold">city</td>
                                            <td>
                                                <div title="city">Ann Arbor</div>
                                            </td>
                                        </tr>
                                        <tr>
                                            <td style="font-weight: bold">state</td>
                                            <td>
                                                <div title="state">MI</div>
                                            </td>
                                        </tr>
                                        <tr>
                                            <td style="font-weight: bold">postalCode</td>
                                            <td>
                                                <div title="postalCode">99999</div>
                                            </td>
                                        </tr>
                                    </table>
                                </td>
                            </tr>
                            <tr>
                                <td style="font-weight: bold">endpoint</td>
                                <td>
                                    <ul style="list-style:none; padding-left:0; margin:0 0;">
                                        <li>
                                            <a href="Endpoint-endpoint-ecr-ymca.html">Endpoint/endpoint-ecr-ymca</a>
                                        </li>
                                    </ul>
                                </td>
                            </tr>
                        </table>
                    </div>
                </text>
                <identifier>
                    <system value="http://hl7.org.fhir/sid/us-npi"/>
                    <value value="7777788"/>
                </identifier>
                <active value="true"/>
                <type>
                    <coding>
                        <system value="http://terminology.hl7.org/CodeSystem/v3-RoleCode"/>
                        <code value="OF"/>
                        <display value="Outpatient facility"/>
                    </coding>
                </type>
                <name value="YMCA"/>
                <telecom>
                    <system value="phone"/>
                    <value value="+1-555-555-7777"/>
                </telecom>
                <telecom>
                    <system value="email"/>
                    <value value="mail@ymca.com"/>
                </telecom>
                <address>
                    <line value="22222 Health Authority Drive"/>
                    <city value="Ann Arbor"/>
                    <state value="MI"/>
                    <postalCode value="99999"/>
                </address>
                <endpoint>
                    <reference value="Endpoint/endpoint-ecr-ymca"/>
                </endpoint>
            </Organization>
        </resource>
    </entry>
</Bundle>